timestamp,header.stamp.sec,header.stamp.nanosec,header.frame_id,orientation.x,orientation.y,orientation.z,orientation.w,orientation_covariance,angular_velocity.x,angular_velocity.y,angular_velocity.z,angular_velocity_covariance,linear_acceleration.x,linear_acceleration.y,linear_acceleration.z,linear_acceleration_covariance
1742656841758906649,1742656841,755098562,imu_link,-0.01556396484375,0.09649658203125,-0.001220703125,0.9952392578125,[0. 0. 0. 0. 0. 0. 0. 0. 0.],0.0,0.0,0.0,[0. 0. 0. 0. 0. 0. 0. 0. 0.],-1.87890625,-0.3046875,9.5390625,[0. 0. 0. 0. 0. 0. 0. 0. 0.]
1742656841793043487,1742656841,772097130,imu_link,-0.01556396484375,0.09649658203125,-0.001220703125,0.9952392578125,[0. 0. 0. 0. 0. 0. 0. 0. 0.],0.0,0.0,0.0,[0. 0. 0. 0. 0. 0. 0. 0. 0.],-1.87890625,-0.3046875,9.5390625,[0. 0. 0. 0. 0. 0. 0. 0. 0.]
1742656841798982420,1742656841,795590292,imu_link,-0.01556396484375,0.09649658203125,-0.001220703125,0.9952392578125,[0. 0. 0. 0. 0. 0. 0. 0. 0.],0.0,0.0,0.0,[0. 0. 0. 0. 0. 0. 0. 0. 0.],-1.87890625,-0.3046875,9.578125,[0. 0. 0. 0. 0. 0. 0. 0. 0.]
1742656841825887469,1742656841,812095254,imu_link,-0.01556396484375,0.09649658203125,-0.001220703125,0.9952392578125,[0. 0. 0. 0. 0. 0. 0. 0. 0.],0.0,0.0,0.0,[0. 0. 0. 0. 0. 0. 0. 0. 0.],-1.87890625,-0.3046875,9.578125,[0. 0. 0. 0. 0. 0. 0. 0. 0.]
1742656841848990765,1742656841,832062178,imu_link,-0.01556396484375,0.09649658203125,-0.001220703125,0.9952392578125,[0. 0. 0. 0. 0. 0. 0. 0. 0.],0.0,0.0,0.0,[0. 0. 0. 0. 0. 0. 0. 0. 0.],-1.87890625,-0.3046875,9.578125,[0. 0. 0. 0. 0. 0. 0. 0. 0.]
1742656841855296861,1742656841,851974157,imu_link,-0.01556396484375,0.09649658203125,-0.001220703125,0.9952392578125,[0. 0. 0. 0. 0. 0. 0. 0. 0.],0.0,0.0,0.0,[0. 0. 0. 0. 0. 0. 0. 0. 0.],-1.87890625,-0.3046875,9.578125,[0. 0. 0. 0. 0. 0. 0. 0. 0.]
1742656841891429417,1742656841,872065524,imu_link,-0.01556396484375,0.09649658203125,-0.001220703125,0.9952392578125,[0. 0. 0. 0. 0. 0. 0. 0. 0.],0.0,0.0,0.0,[0. 0. 0. 0. 0. 0. 0. 0. 0.],-1.87890625,-0.3046875,9.578125,[0. 0. 0. 0. 0. 0. 0. 0. 0.]
1742656841897076909,1742656841,893572838,imu_link,-0.01556396484375,0.09649658203125,-0.001220703125,0.9952392578125,[0. 0. 0. 0. 0. 0. 0. 0. 0.],0.0,0.0,0.0,[0. 0. 0. 0. 0. 0. 0. 0. 0.],-1.87890625,-0.3046875,9.578125,[0. 0. 0. 0. 0. 0. 0. 0. 0.]
1742656841922849953,1742656841,911998890,imu_link,-0.01556396484375,0.09649658203125,-0.001220703125,0.9952392578125,[0. 0. 0. 0. 0. 0. 0. 0. 0.],0.0,0.0,0.0,[0. 0. 0. 0. 0. 0. 0. 0. 0.],-1.87890625,-0.3046875,9.578125,[0. 0. 0. 0. 0. 0. 0. 0. 0.]
1742656841946850442,1742656841,932047775,imu_link,-0.01556396484375,0.09649658203125,-0.001220703125,0.9952392578125,[0. 0. 0. 0. 0. 0. 0. 0. 0.],0.0,0.0,0.0,[0. 0. 0. 0. 0. 0. 0. 0. 0.],-1.87890625,-0.3046875,9.578125,[0. 0. 0. 0. 0. 0. 0. 0. 0.]
1742656841955660102,1742656841,951994143,imu_link,-0.01556396484375,0.09649658203125,-0.001220703125,0.9952392578125,[0. 0. 0. 0. 0. 0. 0. 0. 0.],0.0,0.0,0.0,[0. 0. 0. 0. 0. 0. 0. 0. 0.],-1.87890625,-0.3046875,9.578125,[0. 0. 0. 0. 0. 0. 0. 0. 0.]
1742656841992692630,1742656841,972104898,imu_link,-0.01556396484375,0.09649658203125,-0.001220703125,0.9952392578125,[0. 0. 0. 0. 0. 0. 0. 0. 0.],0.0,0.0,0.0,[0. 0. 0. 0. 0. 0. 0. 0. 0.],-1.87890625,-0.3046875,9.578125,[0. 0. 0. 0. 0. 0. 0. 0. 0.]
1742656841998942485,1742656841,995277341,imu_link,-0.01556396484375,0.09649658203125,-0.001220703125,0.9952392578125,[0. 0. 0. 0. 0. 0. 0. 0. 0.],0.0,0.0,0.0,[0. 0. 0. 0. 0. 0. 0. 0. 0.],-1.87890625,-0.3046875,9.578125,[0. 0. 0. 0. 0. 0. 0. 0. 0.]
1742656842023333009,1742656842,12056635,imu_link,-0.01556396484375,0.09649658203125,-0.001220703125,0.9952392578125,[0. 0. 0. 0. 0. 0. 0. 0. 0.],0.0,0.0,0.0,[0. 0. 0. 0. 0. 0. 0. 0. 0.],-1.87890625,-0.3046875,9.578125,[0. 0. 0. 0. 0. 0. 0. 0. 0.]
1742656842046468306,1742656842,32126077,imu_link,-0.01556396484375,0.09649658203125,-0.001220703125,0.9952392578125,[0. 0. 0. 0. 0. 0. 0. 0. 0.],0.0,0.0,0.0,[0. 0. 0. 0. 0. 0. 0. 0. 0.],-1.87890625,-0.3046875,9.578125,[0. 0. 0. 0. 0. 0. 0. 0. 0.]
1742656842055474242,1742656842,51981318,imu_link,-0.01556396484375,0.09649658203125,-0.001220703125,0.9952392578125,[0. 0. 0. 0. 0. 0. 0. 0. 0.],0.0,0.0,0.0,[0. 0. 0. 0. 0. 0. 0. 0. 0.],-1.87890625,-0.3046875,9.578125,[0. 0. 0. 0. 0. 0. 0. 0. 0.]
1742656842092602846,1742656842,71989688,imu_link,-0.01556396484375,0.09649658203125,-0.001220703125,0.9952392578125,[0. 0. 0. 0. 0. 0. 0. 0. 0.],0.0,0.0,0.0,[0. 0. 0. 0. 0. 0. 0. 0. 0.],-1.87890625,-0.3046875,9.578125,[0. 0. 0. 0. 0. 0. 0. 0. 0.]
1742656842100842310,1742656842,99075941,imu_link,-0.01556396484375,0.09649658203125,-0.001220703125,0.9952392578125,[0. 0. 0. 0. 0. 0. 0. 0. 0.],0.0,0.0,0.0,[0. 0. 0. 0. 0. 0. 0. 0. 0.],-1.87890625,-0.3046875,9.578125,[0. 0. 0. 0. 0. 0. 0. 0. 0.]
1742656842119451343,1742656842,112168739,imu_link,-0.01556396484375,0.09649658203125,-0.001220703125,0.9952392578125,[0. 0. 0. 0. 0. 0. 0. 0. 0.],0.0,0.0,0.0,[0. 0. 0. 0. 0. 0. 0. 0. 0.],-1.87890625,-0.3046875,9.578125,[0. 0. 0. 0. 0. 0. 0. 0. 0.]
1742656842146706001,1742656842,132105053,imu_link,-0.01556396484375,0.09649658203125,-0.001220703125,0.9952392578125,[0. 0. 0. 0. 0. 0. 0. 0. 0.],0.0,0.0,0.0,[0. 0. 0. 0. 0. 0. 0. 0. 0.],-1.87890625,-0.3046875,9.578125,[0. 0. 0. 0. 0. 0. 0. 0. 0.]
1742656842155364738,1742656842,151995665,imu_link,-0.01556396484375,0.09649658203125,-0.001220703125,0.9952392578125,[0. 0. 0. 0. 0. 0. 0. 0. 0.],0.0,0.0,0.0,[0. 0. 0. 0. 0. 0. 0. 0. 0.],-1.87890625,-0.3046875,9.578125,[0. 0. 0. 0. 0. 0. 0. 0. 0.]
1742656842197696914,1742656842,171998349,imu_link,-0.01556396484375,0.09649658203125,-0.001220703125,0.9952392578125,[0. 0. 0. 0. 0. 0. 0. 0. 0.],0.0,0.0,0.0,[0. 0. 0. 0. 0. 0. 0. 0. 0.],-1.87890625,-0.3046875,9.578125,[0. 0. 0. 0. 0. 0. 0. 0. 0.]
1742656842201498001,1742656842,199792835,imu_link,-0.01556396484375,0.09649658203125,-0.001220703125,0.9952392578125,[0. 0. 0. 0. 0. 0. 0. 0. 0.],0.0,0.0,0.0,[0. 0. 0. 0. 0. 0. 0. 0. 0.],-1.87890625,-0.3046875,9.578125,[0. 0. 0. 0. 0. 0. 0. 0. 0.]
1742656842219663150,1742656842,212017254,imu_link,-0.01556396484375,0.09649658203125,-0.001220703125,0.9952392578125,[0. 0. 0. 0. 0. 0. 0. 0. 0.],0.0,0.0,-0.001953125,[0. 0. 0. 0. 0. 0. 0. 0. 0.],-1.87890625,-0.3046875,9.578125,[0. 0. 0. 0. 0. 0. 0. 0. 0.]
1742656842246470462,1742656842,232094066,imu_link,-0.01556396484375,0.09649658203125,-0.001220703125,0.9952392578125,[0. 0. 0. 0. 0. 0. 0. 0. 0.],0.0,0.0,-0.001953125,[0. 0. 0. 0. 0. 0. 0. 0. 0.],-1.87890625,-0.3046875,9.578125,[0. 0. 0. 0. 0. 0. 0. 0. 0.]
1742656842259202060,1742656842,252013085,imu_link,-0.01556396484375,0.09649658203125,-0.001220703125,0.9952392578125,[0. 0. 0. 0. 0. 0. 0. 0. 0.],0.0,0.0,-0.001953125,[0. 0. 0. 0. 0. 0. 0. 0. 0.],-1.87890625,-0.3046875,9.578125,[0. 0. 0. 0. 0. 0. 0. 0. 0.]
1742656842275493193,1742656842,272015584,imu_link,-0.01556396484375,0.09649658203125,-0.001220703125,0.9952392578125,[0. 0. 0. 0. 0. 0. 0. 0. 0.],-0.001953125,0.0,-0.001953125,[0. 0. 0. 0. 0. 0. 0. 0. 0.],-1.87890625,-0.3046875,9.578125,[0. 0. 0. 0. 0. 0. 0. 0. 0.]
1742656842306943879,1742656842,292199155,imu_link,-0.015625,0.09649658203125,-0.00128173828125,0.9952392578125,[0. 0. 0. 0. 0. 0. 0. 0. 0.],-0.001953125,0.0,-0.001953125,[0. 0. 0. 0. 0. 0. 0. 0. 0.],-1.87890625,-0.3046875,9.578125,[0. 0. 0. 0. 0. 0. 0. 0. 0.]
1742656842323617415,1742656842,311992508,imu_link,-0.015625,0.09649658203125,-0.00128173828125,0.9952392578125,[0. 0. 0. 0. 0. 0. 0. 0. 0.],0.0,0.0,-0.001953125,[0. 0. 0. 0. 0. 0. 0. 0. 0.],-1.87890625,-0.3046875,9.578125,[0. 0. 0. 0. 0. 0. 0. 0. 0.]
1742656842345891907,1742656842,332094487,imu_link,-0.01568603515625,0.09649658203125,-0.00128173828125,0.9952392578125,[0. 0. 0. 0. 0. 0. 0. 0. 0.],0.0,0.0,-0.001953125,[0. 0. 0. 0. 0. 0. 0. 0. 0.],-1.87890625,-0.3046875,9.578125,[0. 0. 0. 0. 0. 0. 0. 0. 0.]
1742656842355333968,1742656842,351978191,imu_link,-0.01568603515625,0.09649658203125,-0.00128173828125,0.9952392578125,[0. 0. 0. 0. 0. 0. 0. 0. 0.],0.0,0.0,-0.001953125,[0. 0. 0. 0. 0. 0. 0. 0. 0.],-1.87890625,-0.3046875,9.578125,[0. 0. 0. 0. 0. 0. 0. 0. 0.]
1742656842379464939,1742656842,372038652,imu_link,-0.01568603515625,0.09649658203125,-0.00128173828125,0.9952392578125,[0. 0. 0. 0. 0. 0. 0. 0. 0.],0.0,0.00390625,0.00390625,[0. 0. 0. 0. 0. 0. 0. 0. 0.],-1.87890625,-0.3046875,9.578125,[0. 0. 0. 0. 0. 0. 0. 0. 0.]
1742656842397874900,1742656842,394319051,imu_link,-0.01568603515625,0.09649658203125,-0.00128173828125,0.9952392578125,[0. 0. 0. 0. 0. 0. 0. 0. 0.],0.0,0.00390625,0.00390625,[0. 0. 0. 0. 0. 0. 0. 0. 0.],-1.87890625,-0.3046875,9.578125,[0. 0. 0. 0. 0. 0. 0. 0. 0.]
1742656842423983183,1742656842,412041298,imu_link,-0.01568603515625,0.09649658203125,-0.00128173828125,0.9952392578125,[0. 0. 0. 0. 0. 0. 0. 0. 0.],-0.001953125,0.001953125,-0.001953125,[0. 0. 0. 0. 0. 0. 0. 0. 0.],-1.87890625,-0.3046875,9.5390625,[0. 0. 0. 0. 0. 0. 0. 0. 0.]
1742656842448914349,1742656842,432086741,imu_link,-0.0157470703125,0.09649658203125,-0.00128173828125,0.99517822265625,[0. 0. 0. 0. 0. 0. 0. 0. 0.],-0.001953125,0.001953125,-0.001953125,[0. 0. 0. 0. 0. 0. 0. 0. 0.],-1.87890625,-0.3046875,9.578125,[0. 0. 0. 0. 0. 0. 0. 0. 0.]
1742656842455330926,1742656842,451973722,imu_link,-0.0157470703125,0.09649658203125,-0.00128173828125,0.99517822265625,[0. 0. 0. 0. 0. 0. 0. 0. 0.],-0.001953125,0.001953125,-0.001953125,[0. 0. 0. 0. 0. 0. 0. 0. 0.],-1.87890625,-0.3046875,9.578125,[0. 0. 0. 0. 0. 0. 0. 0. 0.]
1742656842491979498,1742656842,472040313,imu_link,-0.0157470703125,0.09649658203125,-0.00128173828125,0.99517822265625,[0. 0. 0. 0. 0. 0. 0. 0. 0.],0.0,0.001953125,-0.001953125,[0. 0. 0. 0. 0. 0. 0. 0. 0.],-1.87890625,-0.3046875,9.578125,[0. 0. 0. 0. 0. 0. 0. 0. 0.]
1742656842497827284,1742656842,494449100,imu_link,-0.0157470703125,0.09649658203125,-0.00128173828125,0.99517822265625,[0. 0. 0. 0. 0. 0. 0. 0. 0.],0.0,0.001953125,-0.001953125,[0. 0. 0. 0. 0. 0. 0. 0. 0.],-1.87890625,-0.3046875,9.578125,[0. 0. 0. 0. 0. 0. 0. 0. 0.]
1742656842523448369,1742656842,512039089,imu_link,-0.0157470703125,0.09649658203125,-0.00128173828125,0.99517822265625,[0. 0. 0. 0. 0. 0. 0. 0. 0.],0.0,0.001953125,-0.001953125,[0. 0. 0. 0. 0. 0. 0. 0. 0.],-1.87890625,-0.3046875,9.578125,[0. 0. 0. 0. 0. 0. 0. 0. 0.]
1742656842546635591,1742656842,532016254,imu_link,-0.0157470703125,0.09649658203125,-0.00128173828125,0.9952392578125,[0. 0. 0. 0. 0. 0. 0. 0. 0.],0.0,0.001953125,-0.001953125,[0. 0. 0. 0. 0. 0. 0. 0. 0.],-1.87890625,-0.3046875,9.578125,[0. 0. 0. 0. 0. 0. 0. 0. 0.]
1742656842555367253,1742656842,552009327,imu_link,-0.0157470703125,0.09649658203125,-0.00128173828125,0.9952392578125,[0. 0. 0. 0. 0. 0. 0. 0. 0.],0.0,0.001953125,-0.001953125,[0. 0. 0. 0. 0. 0. 0. 0. 0.],-1.87890625,-0.3046875,9.578125,[0. 0. 0. 0. 0. 0. 0. 0. 0.]
1742656842594494112,1742656842,572106048,imu_link,-0.0157470703125,0.09649658203125,-0.00128173828125,0.9952392578125,[0. 0. 0. 0. 0. 0. 0. 0. 0.],-0.001953125,0.0,0.0,[0. 0. 0. 0. 0. 0. 0. 0. 0.],-1.87890625,-0.3046875,9.578125,[0. 0. 0. 0. 0. 0. 0. 0. 0.]
1742656842598873934,1742656842,597110861,imu_link,-0.0157470703125,0.09649658203125,-0.00128173828125,0.9952392578125,[0. 0. 0. 0. 0. 0. 0. 0. 0.],-0.001953125,0.0,0.0,[0. 0. 0. 0. 0. 0. 0. 0. 0.],-1.87890625,-0.3046875,9.578125,[0. 0. 0. 0. 0. 0. 0. 0. 0.]
1742656842624943124,1742656842,612186804,imu_link,-0.0157470703125,0.09649658203125,-0.00128173828125,0.9952392578125,[0. 0. 0. 0. 0. 0. 0. 0. 0.],0.0,0.001953125,0.0,[0. 0. 0. 0. 0. 0. 0. 0. 0.],-1.87890625,-0.34375,9.58203125,[0. 0. 0. 0. 0. 0. 0. 0. 0.]
1742656842646346978,1742656842,632036693,imu_link,-0.01568603515625,0.09649658203125,-0.00128173828125,0.9952392578125,[0. 0. 0. 0. 0. 0. 0. 0. 0.],0.0,0.001953125,0.0,[0. 0. 0. 0. 0. 0. 0. 0. 0.],-1.87890625,-0.3046875,9.578125,[0. 0. 0. 0. 0. 0. 0. 0. 0.]
1742656842655373821,1742656842,652006100,imu_link,-0.01568603515625,0.09649658203125,-0.00128173828125,0.9952392578125,[0. 0. 0. 0. 0. 0. 0. 0. 0.],0.0,0.001953125,0.0,[0. 0. 0. 0. 0. 0. 0. 0. 0.],-1.87890625,-0.3046875,9.578125,[0. 0. 0. 0. 0. 0. 0. 0. 0.]
1742656842692477907,1742656842,672051506,imu_link,-0.01568603515625,0.09649658203125,-0.00128173828125,0.9952392578125,[0. 0. 0. 0. 0. 0. 0. 0. 0.],0.0,-0.001953125,0.0,[0. 0. 0. 0. 0. 0. 0. 0. 0.],-1.87890625,-0.3046875,9.578125,[0. 0. 0. 0. 0. 0. 0. 0. 0.]
1742656842701259679,1742656842,698932928,imu_link,-0.01568603515625,0.09649658203125,-0.00128173828125,0.9952392578125,[0. 0. 0. 0. 0. 0. 0. 0. 0.],0.0,-0.001953125,0.0,[0. 0. 0. 0. 0. 0. 0. 0. 0.],-1.87890625,-0.3046875,9.5390625,[0. 0. 0. 0. 0. 0. 0. 0. 0.]
1742656842718570653,1742656842,711985597,imu_link,-0.01568603515625,0.09649658203125,-0.00128173828125,0.9952392578125,[0. 0. 0. 0. 0. 0. 0. 0. 0.],0.0,0.0,0.0,[0. 0. 0. 0. 0. 0. 0. 0. 0.],-1.87890625,-0.3046875,9.5390625,[0. 0. 0. 0. 0. 0. 0. 0. 0.]
1742656842746649821,1742656842,732067502,imu_link,-0.01568603515625,0.09649658203125,-0.00128173828125,0.9952392578125,[0. 0. 0. 0. 0. 0. 0. 0. 0.],0.0,0.0,0.0,[0. 0. 0. 0. 0. 0. 0. 0. 0.],-1.87890625,-0.3046875,9.578125,[0. 0. 0. 0. 0. 0. 0. 0. 0.]
1742656842755423649,1742656842,751980039,imu_link,-0.01568603515625,0.09649658203125,-0.00128173828125,0.9952392578125,[0. 0. 0. 0. 0. 0. 0. 0. 0.],0.0,0.0,0.0,[0. 0. 0. 0. 0. 0. 0. 0. 0.],-1.87890625,-0.3046875,9.578125,[0. 0. 0. 0. 0. 0. 0. 0. 0.]
1742656842791019066,1742656842,772057315,imu_link,-0.01568603515625,0.09649658203125,-0.00128173828125,0.9952392578125,[0. 0. 0. 0. 0. 0. 0. 0. 0.],0.0,-0.001953125,0.0,[0. 0. 0. 0. 0. 0. 0. 0. 0.],-1.87890625,-0.3046875,9.578125,[0. 0. 0. 0. 0. 0. 0. 0. 0.]
1742656842799809060,1742656842,798103376,imu_link,-0.01568603515625,0.09649658203125,-0.00128173828125,0.9952392578125,[0. 0. 0. 0. 0. 0. 0. 0. 0.],0.0,-0.001953125,0.0,[0. 0. 0. 0. 0. 0. 0. 0. 0.],-1.87890625,-0.3046875,9.578125,[0. 0. 0. 0. 0. 0. 0. 0. 0.]
1742656842818482870,1742656842,811981387,imu_link,-0.01568603515625,0.09649658203125,-0.00128173828125,0.9952392578125,[0. 0. 0. 0. 0. 0. 0. 0. 0.],-0.001953125,-0.001953125,0.0,[0. 0. 0. 0. 0. 0. 0. 0. 0.],-1.87890625,-0.3046875,9.578125,[0. 0. 0. 0. 0. 0. 0. 0. 0.]
1742656842846297949,1742656842,832088626,imu_link,-0.01568603515625,0.09649658203125,-0.00128173828125,0.9952392578125,[0. 0. 0. 0. 0. 0. 0. 0. 0.],-0.001953125,-0.001953125,0.0,[0. 0. 0. 0. 0. 0. 0. 0. 0.],-1.87890625,-0.3046875,9.578125,[0. 0. 0. 0. 0. 0. 0. 0. 0.]
1742656842858708143,1742656842,851995478,imu_link,-0.01568603515625,0.09649658203125,-0.00128173828125,0.9952392578125,[0. 0. 0. 0. 0. 0. 0. 0. 0.],-0.001953125,-0.001953125,0.0,[0. 0. 0. 0. 0. 0. 0. 0. 0.],-1.87890625,-0.3046875,9.578125,[0. 0. 0. 0. 0. 0. 0. 0. 0.]
1742656842875489975,1742656842,872024624,imu_link,-0.01568603515625,0.09649658203125,-0.00128173828125,0.9952392578125,[0. 0. 0. 0. 0. 0. 0. 0. 0.],0.0,-0.001953125,0.0,[0. 0. 0. 0. 0. 0. 0. 0. 0.],-1.87890625,-0.3046875,9.578125,[0. 0. 0. 0. 0. 0. 0. 0. 0.]
1742656842906272816,1742656842,892050586,imu_link,-0.01568603515625,0.09649658203125,-0.00128173828125,0.99517822265625,[0. 0. 0. 0. 0. 0. 0. 0. 0.],0.0,-0.001953125,0.0,[0. 0. 0. 0. 0. 0. 0. 0. 0.],-1.87890625,-0.3046875,9.5390625,[0. 0. 0. 0. 0. 0. 0. 0. 0.]
1742656842922683225,1742656842,911970067,imu_link,-0.01568603515625,0.09649658203125,-0.00128173828125,0.99517822265625,[0. 0. 0. 0. 0. 0. 0. 0. 0.],-0.001953125,0.0,0.0,[0. 0. 0. 0. 0. 0. 0. 0. 0.],-1.87890625,-0.3046875,9.5390625,[0. 0. 0. 0. 0. 0. 0. 0. 0.]
1742656842945291862,1742656842,932123027,imu_link,-0.01568603515625,0.09649658203125,-0.00128173828125,0.9952392578125,[0. 0. 0. 0. 0. 0. 0. 0. 0.],-0.001953125,0.0,0.0,[0. 0. 0. 0. 0. 0. 0. 0. 0.],-1.87890625,-0.3046875,9.5390625,[0. 0. 0. 0. 0. 0. 0. 0. 0.]
1742656842958784989,1742656842,951984620,imu_link,-0.01568603515625,0.09649658203125,-0.00128173828125,0.9952392578125,[0. 0. 0. 0. 0. 0. 0. 0. 0.],-0.001953125,0.0,0.0,[0. 0. 0. 0. 0. 0. 0. 0. 0.],-1.87890625,-0.3046875,9.578125,[0. 0. 0. 0. 0. 0. 0. 0. 0.]
1742656842975890150,1742656842,972132525,imu_link,-0.01568603515625,0.09649658203125,-0.00128173828125,0.9952392578125,[0. 0. 0. 0. 0. 0. 0. 0. 0.],0.0,0.0,-0.001953125,[0. 0. 0. 0. 0. 0. 0. 0. 0.],-1.87890625,-0.3046875,9.578125,[0. 0. 0. 0. 0. 0. 0. 0. 0.]
1742656843006792916,1742656842,992061840,imu_link,-0.01568603515625,0.09649658203125,-0.00128173828125,0.9952392578125,[0. 0. 0. 0. 0. 0. 0. 0. 0.],0.0,0.0,-0.001953125,[0. 0. 0. 0. 0. 0. 0. 0. 0.],-1.87890625,-0.3046875,9.578125,[0. 0. 0. 0. 0. 0. 0. 0. 0.]
1742656843023960892,1742656843,12004803,imu_link,-0.01568603515625,0.09649658203125,-0.00128173828125,0.9952392578125,[0. 0. 0. 0. 0. 0. 0. 0. 0.],0.0,0.001953125,0.001953125,[0. 0. 0. 0. 0. 0. 0. 0. 0.],-1.87890625,-0.3046875,9.578125,[0. 0. 0. 0. 0. 0. 0. 0. 0.]
1742656843048922190,1742656843,31999099,imu_link,-0.015625,0.09649658203125,-0.00128173828125,0.99517822265625,[0. 0. 0. 0. 0. 0. 0. 0. 0.],0.0,0.001953125,0.001953125,[0. 0. 0. 0. 0. 0. 0. 0. 0.],-1.87890625,-0.3046875,9.578125,[0. 0. 0. 0. 0. 0. 0. 0. 0.]
1742656843055382785,1742656843,52021322,imu_link,-0.015625,0.09649658203125,-0.00128173828125,0.99517822265625,[0. 0. 0. 0. 0. 0. 0. 0. 0.],0.0,0.001953125,0.001953125,[0. 0. 0. 0. 0. 0. 0. 0. 0.],-1.87890625,-0.3046875,9.578125,[0. 0. 0. 0. 0. 0. 0. 0. 0.]
1742656843092308968,1742656843,72054748,imu_link,-0.015625,0.0965576171875,-0.00128173828125,0.99517822265625,[0. 0. 0. 0. 0. 0. 0. 0. 0.],-0.001953125,0.001953125,0.001953125,[0. 0. 0. 0. 0. 0. 0. 0. 0.],-1.87890625,-0.3046875,9.578125,[0. 0. 0. 0. 0. 0. 0. 0. 0.]
1742656843097540484,1742656843,94820755,imu_link,-0.015625,0.0965576171875,-0.00128173828125,0.99517822265625,[0. 0. 0. 0. 0. 0. 0. 0. 0.],-0.001953125,0.001953125,0.001953125,[0. 0. 0. 0. 0. 0. 0. 0. 0.],-1.87890625,-0.3046875,9.578125,[0. 0. 0. 0. 0. 0. 0. 0. 0.]
1742656843123761138,1742656843,112189285,imu_link,-0.015625,0.0965576171875,-0.00128173828125,0.99517822265625,[0. 0. 0. 0. 0. 0. 0. 0. 0.],0.0,0.0,0.0,[0. 0. 0. 0. 0. 0. 0. 0. 0.],-1.87890625,-0.3046875,9.578125,[0. 0. 0. 0. 0. 0. 0. 0. 0.]
1742656843146316462,1742656843,132079953,imu_link,-0.01568603515625,0.09649658203125,-0.00128173828125,0.99517822265625,[0. 0. 0. 0. 0. 0. 0. 0. 0.],0.0,0.0,0.0,[0. 0. 0. 0. 0. 0. 0. 0. 0.],-1.87890625,-0.3046875,9.578125,[0. 0. 0. 0. 0. 0. 0. 0. 0.]
1742656843155581211,1742656843,152037065,imu_link,-0.01568603515625,0.09649658203125,-0.00128173828125,0.99517822265625,[0. 0. 0. 0. 0. 0. 0. 0. 0.],0.0,0.0,0.0,[0. 0. 0. 0. 0. 0. 0. 0. 0.],-1.87890625,-0.3046875,9.578125,[0. 0. 0. 0. 0. 0. 0. 0. 0.]
1742656843193712381,1742656843,172103658,imu_link,-0.015625,0.0965576171875,-0.001220703125,0.99517822265625,[0. 0. 0. 0. 0. 0. 0. 0. 0.],0.0,0.001953125,0.001953125,[0. 0. 0. 0. 0. 0. 0. 0. 0.],-1.87890625,-0.3046875,9.578125,[0. 0. 0. 0. 0. 0. 0. 0. 0.]
1742656843198331330,1742656843,196260557,imu_link,-0.015625,0.0965576171875,-0.001220703125,0.99517822265625,[0. 0. 0. 0. 0. 0. 0. 0. 0.],0.0,0.001953125,0.001953125,[0. 0. 0. 0. 0. 0. 0. 0. 0.],-1.87890625,-0.3046875,9.578125,[0. 0. 0. 0. 0. 0. 0. 0. 0.]
1742656843218915769,1742656843,212020012,imu_link,-0.015625,0.0965576171875,-0.001220703125,0.99517822265625,[0. 0. 0. 0. 0. 0. 0. 0. 0.],0.0,-0.001953125,-0.001953125,[0. 0. 0. 0. 0. 0. 0. 0. 0.],-1.87890625,-0.3046875,9.578125,[0. 0. 0. 0. 0. 0. 0. 0. 0.]
1742656843246100319,1742656843,232075012,imu_link,-0.015625,0.09649658203125,-0.00128173828125,0.9952392578125,[0. 0. 0. 0. 0. 0. 0. 0. 0.],0.0,-0.001953125,-0.001953125,[0. 0. 0. 0. 0. 0. 0. 0. 0.],-1.87890625,-0.3046875,9.5390625,[0. 0. 0. 0. 0. 0. 0. 0. 0.]
1742656843255527826,1742656843,251986069,imu_link,-0.015625,0.09649658203125,-0.00128173828125,0.9952392578125,[0. 0. 0. 0. 0. 0. 0. 0. 0.],0.0,-0.001953125,-0.001953125,[0. 0. 0. 0. 0. 0. 0. 0. 0.],-1.87890625,-0.3046875,9.5390625,[0. 0. 0. 0. 0. 0. 0. 0. 0.]
1742656843292231104,1742656843,272073420,imu_link,-0.015625,0.09649658203125,-0.00128173828125,0.9952392578125,[0. 0. 0. 0. 0. 0. 0. 0. 0.],0.001953125,0.001953125,0.00390625,[0. 0. 0. 0. 0. 0. 0. 0. 0.],-1.87890625,-0.3046875,9.578125,[0. 0. 0. 0. 0. 0. 0. 0. 0.]
1742656843299996833,1742656843,294233563,imu_link,-0.015625,0.09649658203125,-0.00128173828125,0.9952392578125,[0. 0. 0. 0. 0. 0. 0. 0. 0.],0.001953125,0.001953125,0.00390625,[0. 0. 0. 0. 0. 0. 0. 0. 0.],-1.87890625,-0.3046875,9.578125,[0. 0. 0. 0. 0. 0. 0. 0. 0.]
1742656843318533220,1742656843,312025107,imu_link,-0.015625,0.09649658203125,-0.00128173828125,0.9952392578125,[0. 0. 0. 0. 0. 0. 0. 0. 0.],0.0,0.001953125,-0.001953125,[0. 0. 0. 0. 0. 0. 0. 0. 0.],-1.87890625,-0.3046875,9.578125,[0. 0. 0. 0. 0. 0. 0. 0. 0.]
1742656843346261135,1742656843,332030311,imu_link,-0.015625,0.09649658203125,-0.00128173828125,0.99517822265625,[0. 0. 0. 0. 0. 0. 0. 0. 0.],0.0,0.001953125,-0.001953125,[0. 0. 0. 0. 0. 0. 0. 0. 0.],-1.87890625,-0.3046875,9.578125,[0. 0. 0. 0. 0. 0. 0. 0. 0.]
1742656843356728519,1742656843,352256883,imu_link,-0.015625,0.09649658203125,-0.00128173828125,0.99517822265625,[0. 0. 0. 0. 0. 0. 0. 0. 0.],0.0,0.001953125,-0.001953125,[0. 0. 0. 0. 0. 0. 0. 0. 0.],-1.87890625,-0.3046875,9.578125,[0. 0. 0. 0. 0. 0. 0. 0. 0.]
1742656843396519745,1742656843,372075664,imu_link,-0.015625,0.09649658203125,-0.00128173828125,0.9952392578125,[0. 0. 0. 0. 0. 0. 0. 0. 0.],0.001953125,-0.001953125,0.001953125,[0. 0. 0. 0. 0. 0. 0. 0. 0.],-1.87890625,-0.3046875,9.578125,[0. 0. 0. 0. 0. 0. 0. 0. 0.]
1742656843402140738,1742656843,398158449,imu_link,-0.015625,0.09649658203125,-0.00128173828125,0.9952392578125,[0. 0. 0. 0. 0. 0. 0. 0. 0.],0.001953125,-0.001953125,0.001953125,[0. 0. 0. 0. 0. 0. 0. 0. 0.],-1.87890625,-0.3046875,9.578125,[0. 0. 0. 0. 0. 0. 0. 0. 0.]
1742656843418673814,1742656843,412057646,imu_link,-0.015625,0.09649658203125,-0.00128173828125,0.9952392578125,[0. 0. 0. 0. 0. 0. 0. 0. 0.],0.0,0.0,0.0,[0. 0. 0. 0. 0. 0. 0. 0. 0.],-1.87890625,-0.3046875,9.578125,[0. 0. 0. 0. 0. 0. 0. 0. 0.]
1742656843445777013,1742656843,432391254,imu_link,-0.015625,0.09649658203125,-0.00128173828125,0.9952392578125,[0. 0. 0. 0. 0. 0. 0. 0. 0.],0.0,0.0,0.0,[0. 0. 0. 0. 0. 0. 0. 0. 0.],-1.87890625,-0.3046875,9.578125,[0. 0. 0. 0. 0. 0. 0. 0. 0.]
1742656843463624464,1742656843,452096147,imu_link,-0.015625,0.09649658203125,-0.00128173828125,0.9952392578125,[0. 0. 0. 0. 0. 0. 0. 0. 0.],0.0,0.0,0.0,[0. 0. 0. 0. 0. 0. 0. 0. 0.],-1.87890625,-0.3046875,9.578125,[0. 0. 0. 0. 0. 0. 0. 0. 0.]
1742656843475529536,1742656843,472081500,imu_link,-0.015625,0.09649658203125,-0.00128173828125,0.9952392578125,[0. 0. 0. 0. 0. 0. 0. 0. 0.],0.0,0.0,0.0,[0. 0. 0. 0. 0. 0. 0. 0. 0.],-1.87890625,-0.3046875,9.578125,[0. 0. 0. 0. 0. 0. 0. 0. 0.]
1742656843506110937,1742656843,491994464,imu_link,-0.015625,0.09649658203125,-0.00128173828125,0.9952392578125,[0. 0. 0. 0. 0. 0. 0. 0. 0.],0.0,0.0,0.0,[0. 0. 0. 0. 0. 0. 0. 0. 0.],-1.87890625,-0.3046875,9.578125,[0. 0. 0. 0. 0. 0. 0. 0. 0.]
1742656843522839678,1742656843,512046242,imu_link,-0.015625,0.09649658203125,-0.00128173828125,0.9952392578125,[0. 0. 0. 0. 0. 0. 0. 0. 0.],0.0,0.0,0.0,[0. 0. 0. 0. 0. 0. 0. 0. 0.],-1.87890625,-0.3046875,9.578125,[0. 0. 0. 0. 0. 0. 0. 0. 0.]
1742656843544934840,1742656843,531979095,imu_link,-0.015625,0.09649658203125,-0.00128173828125,0.9952392578125,[0. 0. 0. 0. 0. 0. 0. 0. 0.],0.0,0.0,0.0,[0. 0. 0. 0. 0. 0. 0. 0. 0.],-1.87890625,-0.3046875,9.578125,[0. 0. 0. 0. 0. 0. 0. 0. 0.]
1742656843562771365,1742656843,551982299,imu_link,-0.015625,0.09649658203125,-0.00128173828125,0.9952392578125,[0. 0. 0. 0. 0. 0. 0. 0. 0.],0.0,0.0,0.0,[0. 0. 0. 0. 0. 0. 0. 0. 0.],-1.87890625,-0.3046875,9.5390625,[0. 0. 0. 0. 0. 0. 0. 0. 0.]
1742656843575567353,1742656843,572001337,imu_link,-0.015625,0.09649658203125,-0.00128173828125,0.9952392578125,[0. 0. 0. 0. 0. 0. 0. 0. 0.],0.0,0.0,0.0,[0. 0. 0. 0. 0. 0. 0. 0. 0.],-1.87890625,-0.3046875,9.5390625,[0. 0. 0. 0. 0. 0. 0. 0. 0.]
1742656843605378800,1742656843,592066299,imu_link,-0.015625,0.09649658203125,-0.00128173828125,0.9952392578125,[0. 0. 0. 0. 0. 0. 0. 0. 0.],0.0,0.0,0.0,[0. 0. 0. 0. 0. 0. 0. 0. 0.],-1.87890625,-0.3046875,9.578125,[0. 0. 0. 0. 0. 0. 0. 0. 0.]
1742656843623022086,1742656843,612225391,imu_link,-0.015625,0.09649658203125,-0.00128173828125,0.9952392578125,[0. 0. 0. 0. 0. 0. 0. 0. 0.],0.0,0.0,0.0,[0. 0. 0. 0. 0. 0. 0. 0. 0.],-1.87890625,-0.3046875,9.578125,[0. 0. 0. 0. 0. 0. 0. 0. 0.]
1742656843648406101,1742656843,632003394,imu_link,-0.015625,0.09649658203125,-0.00128173828125,0.9952392578125,[0. 0. 0. 0. 0. 0. 0. 0. 0.],0.0,0.0,0.0,[0. 0. 0. 0. 0. 0. 0. 0. 0.],-1.87890625,-0.3046875,9.578125,[0. 0. 0. 0. 0. 0. 0. 0. 0.]
1742656843655355654,1742656843,651971265,imu_link,-0.015625,0.09649658203125,-0.00128173828125,0.9952392578125,[0. 0. 0. 0. 0. 0. 0. 0. 0.],0.0,0.0,0.0,[0. 0. 0. 0. 0. 0. 0. 0. 0.],-1.87890625,-0.3046875,9.578125,[0. 0. 0. 0. 0. 0. 0. 0. 0.]
1742656843692431909,1742656843,672073172,imu_link,-0.015625,0.09649658203125,-0.00128173828125,0.9952392578125,[0. 0. 0. 0. 0. 0. 0. 0. 0.],0.0,0.0,0.0,[0. 0. 0. 0. 0. 0. 0. 0. 0.],-1.87890625,-0.3046875,9.578125,[0. 0. 0. 0. 0. 0. 0. 0. 0.]
1742656843697219264,1742656843,694949937,imu_link,-0.015625,0.09649658203125,-0.00128173828125,0.9952392578125,[0. 0. 0. 0. 0. 0. 0. 0. 0.],0.0,0.0,0.0,[0. 0. 0. 0. 0. 0. 0. 0. 0.],-1.87890625,-0.3046875,9.578125,[0. 0. 0. 0. 0. 0. 0. 0. 0.]
1742656843723787340,1742656843,712185598,imu_link,-0.015625,0.09649658203125,-0.00128173828125,0.9952392578125,[0. 0. 0. 0. 0. 0. 0. 0. 0.],0.0,0.0,0.0,[0. 0. 0. 0. 0. 0. 0. 0. 0.],-1.87890625,-0.3046875,9.578125,[0. 0. 0. 0. 0. 0. 0. 0. 0.]
1742656843748159977,1742656843,731991193,imu_link,-0.01556396484375,0.09649658203125,-0.00128173828125,0.9952392578125,[0. 0. 0. 0. 0. 0. 0. 0. 0.],0.0,0.0,0.0,[0. 0. 0. 0. 0. 0. 0. 0. 0.],-1.87890625,-0.3046875,9.578125,[0. 0. 0. 0. 0. 0. 0. 0. 0.]
1742656843755521358,1742656843,752094267,imu_link,-0.01556396484375,0.09649658203125,-0.00128173828125,0.9952392578125,[0. 0. 0. 0. 0. 0. 0. 0. 0.],0.0,0.0,0.0,[0. 0. 0. 0. 0. 0. 0. 0. 0.],-1.87890625,-0.3046875,9.578125,[0. 0. 0. 0. 0. 0. 0. 0. 0.]
1742656843792963832,1742656843,772069860,imu_link,-0.01556396484375,0.09649658203125,-0.00128173828125,0.99517822265625,[0. 0. 0. 0. 0. 0. 0. 0. 0.],0.0,0.0,0.0,[0. 0. 0. 0. 0. 0. 0. 0. 0.],-1.87890625,-0.3046875,9.578125,[0. 0. 0. 0. 0. 0. 0. 0. 0.]
1742656843797364376,1742656843,795595747,imu_link,-0.01556396484375,0.09649658203125,-0.00128173828125,0.99517822265625,[0. 0. 0. 0. 0. 0. 0. 0. 0.],0.0,0.0,0.0,[0. 0. 0. 0. 0. 0. 0. 0. 0.],-1.87890625,-0.3046875,9.578125,[0. 0. 0. 0. 0. 0. 0. 0. 0.]
1742656843822752632,1742656843,812057472,imu_link,-0.01556396484375,0.09649658203125,-0.00128173828125,0.99517822265625,[0. 0. 0. 0. 0. 0. 0. 0. 0.],0.0,0.0,0.0,[0. 0. 0. 0. 0. 0. 0. 0. 0.],-1.87890625,-0.3046875,9.578125,[0. 0. 0. 0. 0. 0. 0. 0. 0.]
1742656843845497380,1742656843,832054140,imu_link,-0.01556396484375,0.09649658203125,-0.00128173828125,0.9952392578125,[0. 0. 0. 0. 0. 0. 0. 0. 0.],0.0,0.0,0.0,[0. 0. 0. 0. 0. 0. 0. 0. 0.],-1.87890625,-0.3046875,9.578125,[0. 0. 0. 0. 0. 0. 0. 0. 0.]
1742656843854816128,1742656843,852029677,imu_link,-0.01556396484375,0.09649658203125,-0.00128173828125,0.9952392578125,[0. 0. 0. 0. 0. 0. 0. 0. 0.],0.0,0.0,0.0,[0. 0. 0. 0. 0. 0. 0. 0. 0.],-1.87890625,-0.3046875,9.578125,[0. 0. 0. 0. 0. 0. 0. 0. 0.]
1742656843887858391,1742656843,872116214,imu_link,-0.01556396484375,0.09649658203125,-0.00128173828125,0.9952392578125,[0. 0. 0. 0. 0. 0. 0. 0. 0.],0.0,0.0,0.0,[0. 0. 0. 0. 0. 0. 0. 0. 0.],-1.87890625,-0.3046875,9.578125,[0. 0. 0. 0. 0. 0. 0. 0. 0.]
1742656843894826574,1742656843,892002734,imu_link,-0.01556396484375,0.09649658203125,-0.00128173828125,0.9952392578125,[0. 0. 0. 0. 0. 0. 0. 0. 0.],0.0,0.0,0.0,[0. 0. 0. 0. 0. 0. 0. 0. 0.],-1.87890625,-0.3046875,9.578125,[0. 0. 0. 0. 0. 0. 0. 0. 0.]
1742656843920231736,1742656843,912173622,imu_link,-0.01556396484375,0.09649658203125,-0.00128173828125,0.9952392578125,[0. 0. 0. 0. 0. 0. 0. 0. 0.],0.0,0.0,0.0,[0. 0. 0. 0. 0. 0. 0. 0. 0.],-1.87890625,-0.3046875,9.578125,[0. 0. 0. 0. 0. 0. 0. 0. 0.]
1742656843946355910,1742656843,932238826,imu_link,-0.01556396484375,0.09649658203125,-0.00128173828125,0.9952392578125,[0. 0. 0. 0. 0. 0. 0. 0. 0.],0.0,0.0,0.0,[0. 0. 0. 0. 0. 0. 0. 0. 0.],-1.87890625,-0.3046875,9.578125,[0. 0. 0. 0. 0. 0. 0. 0. 0.]
1742656843954889797,1742656843,952030680,imu_link,-0.01556396484375,0.09649658203125,-0.00128173828125,0.9952392578125,[0. 0. 0. 0. 0. 0. 0. 0. 0.],0.0,0.0,0.0,[0. 0. 0. 0. 0. 0. 0. 0. 0.],-1.87890625,-0.3046875,9.578125,[0. 0. 0. 0. 0. 0. 0. 0. 0.]
1742656843995917138,1742656843,972140809,imu_link,-0.01556396484375,0.09649658203125,-0.00128173828125,0.9952392578125,[0. 0. 0. 0. 0. 0. 0. 0. 0.],0.0,0.0,0.0,[0. 0. 0. 0. 0. 0. 0. 0. 0.],-1.87890625,-0.3046875,9.578125,[0. 0. 0. 0. 0. 0. 0. 0. 0.]
1742656844001087451,1742656843,997709118,imu_link,-0.01556396484375,0.09649658203125,-0.00128173828125,0.9952392578125,[0. 0. 0. 0. 0. 0. 0. 0. 0.],0.0,0.0,0.0,[0. 0. 0. 0. 0. 0. 0. 0. 0.],-1.87890625,-0.3046875,9.578125,[0. 0. 0. 0. 0. 0. 0. 0. 0.]
1742656844019043531,1742656844,12167107,imu_link,-0.01556396484375,0.09649658203125,-0.00128173828125,0.9952392578125,[0. 0. 0. 0. 0. 0. 0. 0. 0.],0.0,0.0,0.0,[0. 0. 0. 0. 0. 0. 0. 0. 0.],-1.87890625,-0.3046875,9.578125,[0. 0. 0. 0. 0. 0. 0. 0. 0.]
1742656844044581102,1742656844,32027518,imu_link,-0.01556396484375,0.09649658203125,-0.00128173828125,0.9952392578125,[0. 0. 0. 0. 0. 0. 0. 0. 0.],0.0,0.0,0.0,[0. 0. 0. 0. 0. 0. 0. 0. 0.],-1.87890625,-0.3046875,9.578125,[0. 0. 0. 0. 0. 0. 0. 0. 0.]
1742656844063267285,1742656844,52029224,imu_link,-0.01556396484375,0.09649658203125,-0.00128173828125,0.9952392578125,[0. 0. 0. 0. 0. 0. 0. 0. 0.],0.0,0.0,0.0,[0. 0. 0. 0. 0. 0. 0. 0. 0.],-1.87890625,-0.3046875,9.578125,[0. 0. 0. 0. 0. 0. 0. 0. 0.]
1742656844075401745,1742656844,72198446,imu_link,-0.01556396484375,0.09649658203125,-0.00128173828125,0.9952392578125,[0. 0. 0. 0. 0. 0. 0. 0. 0.],0.0,0.0,0.0,[0. 0. 0. 0. 0. 0. 0. 0. 0.],-1.87890625,-0.3046875,9.578125,[0. 0. 0. 0. 0. 0. 0. 0. 0.]
1742656844094851216,1742656844,92019784,imu_link,-0.01556396484375,0.09649658203125,-0.00128173828125,0.9952392578125,[0. 0. 0. 0. 0. 0. 0. 0. 0.],0.0,0.0,0.0,[0. 0. 0. 0. 0. 0. 0. 0. 0.],-1.87890625,-0.3046875,9.578125,[0. 0. 0. 0. 0. 0. 0. 0. 0.]
1742656844123502660,1742656844,112268080,imu_link,-0.01556396484375,0.09649658203125,-0.00128173828125,0.9952392578125,[0. 0. 0. 0. 0. 0. 0. 0. 0.],0.0,0.0,0.0,[0. 0. 0. 0. 0. 0. 0. 0. 0.],-1.87890625,-0.3046875,9.578125,[0. 0. 0. 0. 0. 0. 0. 0. 0.]
1742656844144782241,1742656844,132278674,imu_link,-0.01556396484375,0.09649658203125,-0.00128173828125,0.9952392578125,[0. 0. 0. 0. 0. 0. 0. 0. 0.],0.0,0.0,0.0,[0. 0. 0. 0. 0. 0. 0. 0. 0.],-1.87890625,-0.3046875,9.578125,[0. 0. 0. 0. 0. 0. 0. 0. 0.]
1742656844164811150,1742656844,152348398,imu_link,-0.01556396484375,0.09649658203125,-0.00128173828125,0.9952392578125,[0. 0. 0. 0. 0. 0. 0. 0. 0.],0.0,0.0,0.0,[0. 0. 0. 0. 0. 0. 0. 0. 0.],-1.87890625,-0.3046875,9.578125,[0. 0. 0. 0. 0. 0. 0. 0. 0.]
1742656844174930261,1742656844,172066737,imu_link,-0.01556396484375,0.09649658203125,-0.00128173828125,0.9952392578125,[0. 0. 0. 0. 0. 0. 0. 0. 0.],0.0,0.0,0.0,[0. 0. 0. 0. 0. 0. 0. 0. 0.],-1.87890625,-0.3046875,9.578125,[0. 0. 0. 0. 0. 0. 0. 0. 0.]
1742656844205697033,1742656844,192117683,imu_link,-0.01556396484375,0.09649658203125,-0.00128173828125,0.9952392578125,[0. 0. 0. 0. 0. 0. 0. 0. 0.],0.0,0.0,0.0,[0. 0. 0. 0. 0. 0. 0. 0. 0.],-1.87890625,-0.3046875,9.578125,[0. 0. 0. 0. 0. 0. 0. 0. 0.]
1742656844219411512,1742656844,215963476,imu_link,-0.01556396484375,0.09649658203125,-0.00128173828125,0.9952392578125,[0. 0. 0. 0. 0. 0. 0. 0. 0.],0.0,0.0,0.0,[0. 0. 0. 0. 0. 0. 0. 0. 0.],-1.87890625,-0.3046875,9.5390625,[0. 0. 0. 0. 0. 0. 0. 0. 0.]
1742656844247059838,1742656844,232055558,imu_link,-0.01556396484375,0.09649658203125,-0.00128173828125,0.9952392578125,[0. 0. 0. 0. 0. 0. 0. 0. 0.],0.0,0.0,0.0,[0. 0. 0. 0. 0. 0. 0. 0. 0.],-1.87890625,-0.3046875,9.5390625,[0. 0. 0. 0. 0. 0. 0. 0. 0.]
1742656844255816482,1742656844,252122930,imu_link,-0.01556396484375,0.09649658203125,-0.00128173828125,0.9952392578125,[0. 0. 0. 0. 0. 0. 0. 0. 0.],0.0,0.0,0.0,[0. 0. 0. 0. 0. 0. 0. 0. 0.],-1.87890625,-0.3046875,9.578125,[0. 0. 0. 0. 0. 0. 0. 0. 0.]
1742656844286408368,1742656844,272072062,imu_link,-0.01556396484375,0.09649658203125,-0.00128173828125,0.9952392578125,[0. 0. 0. 0. 0. 0. 0. 0. 0.],0.0,0.0,0.0,[0. 0. 0. 0. 0. 0. 0. 0. 0.],-1.87890625,-0.3046875,9.578125,[0. 0. 0. 0. 0. 0. 0. 0. 0.]
1742656844294664777,1742656844,292167471,imu_link,-0.01556396484375,0.09649658203125,-0.00128173828125,0.9952392578125,[0. 0. 0. 0. 0. 0. 0. 0. 0.],0.0,0.0,0.0,[0. 0. 0. 0. 0. 0. 0. 0. 0.],-1.87890625,-0.3046875,9.578125,[0. 0. 0. 0. 0. 0. 0. 0. 0.]
1742656844323076501,1742656844,312134955,imu_link,-0.01556396484375,0.09649658203125,-0.00128173828125,0.9952392578125,[0. 0. 0. 0. 0. 0. 0. 0. 0.],0.0,0.0,0.0,[0. 0. 0. 0. 0. 0. 0. 0. 0.],-1.87890625,-0.3046875,9.578125,[0. 0. 0. 0. 0. 0. 0. 0. 0.]
1742656844347068552,1742656844,332084124,imu_link,-0.01556396484375,0.09649658203125,-0.00128173828125,0.9952392578125,[0. 0. 0. 0. 0. 0. 0. 0. 0.],0.0,0.0,0.0,[0. 0. 0. 0. 0. 0. 0. 0. 0.],-1.83984375,-0.26953125,9.58203125,[0. 0. 0. 0. 0. 0. 0. 0. 0.]
1742656844354697524,1742656844,352118367,imu_link,-0.01556396484375,0.09649658203125,-0.00128173828125,0.9952392578125,[0. 0. 0. 0. 0. 0. 0. 0. 0.],0.0,0.0,0.0,[0. 0. 0. 0. 0. 0. 0. 0. 0.],-1.83984375,-0.26953125,9.58203125,[0. 0. 0. 0. 0. 0. 0. 0. 0.]
1742656844387719198,1742656844,372244812,imu_link,-0.015625,0.09649658203125,-0.0013427734375,0.9952392578125,[0. 0. 0. 0. 0. 0. 0. 0. 0.],-0.005859375,0.0,-0.0078125,[0. 0. 0. 0. 0. 0. 0. 0. 0.],-1.80078125,-0.34375,9.5390625,[0. 0. 0. 0. 0. 0. 0. 0. 0.]
1742656844394187200,1742656844,392020298,imu_link,-0.015625,0.09649658203125,-0.0013427734375,0.9952392578125,[0. 0. 0. 0. 0. 0. 0. 0. 0.],-0.005859375,0.0,-0.0078125,[0. 0. 0. 0. 0. 0. 0. 0. 0.],-1.80078125,-0.34375,9.5390625,[0. 0. 0. 0. 0. 0. 0. 0. 0.]
1742656844423584451,1742656844,412138225,imu_link,-0.015625,0.09649658203125,-0.0013427734375,0.9952392578125,[0. 0. 0. 0. 0. 0. 0. 0. 0.],0.0,0.0,0.044921875,[0. 0. 0. 0. 0. 0. 0. 0. 0.],-1.37890625,-0.61328125,9.609375,[0. 0. 0. 0. 0. 0. 0. 0. 0.]
1742656844444825291,1742656844,432176005,imu_link,-0.015380859375,0.09649658203125,-0.00042724609375,0.9952392578125,[0. 0. 0. 0. 0. 0. 0. 0. 0.],0.0,0.0,0.044921875,[0. 0. 0. 0. 0. 0. 0. 0. 0.],-1.109375,-0.7265625,9.578125,[0. 0. 0. 0. 0. 0. 0. 0. 0.]
1742656844454723442,1742656844,452137489,imu_link,-0.015380859375,0.09649658203125,-0.00042724609375,0.9952392578125,[0. 0. 0. 0. 0. 0. 0. 0. 0.],0.0,0.0,0.044921875,[0. 0. 0. 0. 0. 0. 0. 0. 0.],-1.109375,-0.7265625,9.578125,[0. 0. 0. 0. 0. 0. 0. 0. 0.]
1742656844488845678,1742656844,472073899,imu_link,-0.0150146484375,0.09637451171875,0.0020751953125,0.9952392578125,[0. 0. 0. 0. 0. 0. 0. 0. 0.],0.001953125,-0.001953125,0.10546875,[0. 0. 0. 0. 0. 0. 0. 0. 0.],-0.84375,-0.8828125,9.6484375,[0. 0. 0. 0. 0. 0. 0. 0. 0.]
1742656844494184711,1742656844,492022791,imu_link,-0.0150146484375,0.09637451171875,0.0020751953125,0.9952392578125,[0. 0. 0. 0. 0. 0. 0. 0. 0.],0.001953125,-0.001953125,0.10546875,[0. 0. 0. 0. 0. 0. 0. 0. 0.],-0.84375,-0.8828125,9.6484375,[0. 0. 0. 0. 0. 0. 0. 0. 0.]
1742656844523484945,1742656844,512140255,imu_link,-0.0150146484375,0.09637451171875,0.0020751953125,0.9952392578125,[0. 0. 0. 0. 0. 0. 0. 0. 0.],-0.001953125,0.0,0.154296875,[0. 0. 0. 0. 0. 0. 0. 0. 0.],-0.7265625,-0.91796875,9.6484375,[0. 0. 0. 0. 0. 0. 0. 0. 0.]
1742656844545750533,1742656844,532052832,imu_link,-0.0150146484375,0.09588623046875,0.0057373046875,0.9952392578125,[0. 0. 0. 0. 0. 0. 0. 0. 0.],-0.001953125,0.0,0.154296875,[0. 0. 0. 0. 0. 0. 0. 0. 0.],-0.765625,-0.57421875,9.609375,[0. 0. 0. 0. 0. 0. 0. 0. 0.]
1742656844554697490,1742656844,552188629,imu_link,-0.0150146484375,0.09588623046875,0.0057373046875,0.9952392578125,[0. 0. 0. 0. 0. 0. 0. 0. 0.],-0.001953125,0.0,0.154296875,[0. 0. 0. 0. 0. 0. 0. 0. 0.],-0.765625,-0.57421875,9.609375,[0. 0. 0. 0. 0. 0. 0. 0. 0.]
1742656844574689992,1742656844,572029948,imu_link,-0.0150146484375,0.09588623046875,0.0057373046875,0.9952392578125,[0. 0. 0. 0. 0. 0. 0. 0. 0.],-0.009765625,0.0,0.111328125,[0. 0. 0. 0. 0. 0. 0. 0. 0.],-0.84375,-0.26953125,9.609375,[0. 0. 0. 0. 0. 0. 0. 0. 0.]
1742656844598864023,1742656844,592033987,imu_link,-0.01531982421875,0.0953369140625,0.0086669921875,0.99530029296875,[0. 0. 0. 0. 0. 0. 0. 0. 0.],-0.009765625,0.0,0.111328125,[0. 0. 0. 0. 0. 0. 0. 0. 0.],-1.1875,0.078125,9.54296875,[0. 0. 0. 0. 0. 0. 0. 0. 0.]
1742656844620017772,1742656844,612309097,imu_link,-0.01531982421875,0.0953369140625,0.0086669921875,0.99530029296875,[0. 0. 0. 0. 0. 0. 0. 0. 0.],-0.00390625,0.0,0.11328125,[0. 0. 0. 0. 0. 0. 0. 0. 0.],-1.1875,0.078125,9.54296875,[0. 0. 0. 0. 0. 0. 0. 0. 0.]
1742656844644432151,1742656844,632054676,imu_link,-0.01544189453125,0.09490966796875,0.01141357421875,0.99530029296875,[0. 0. 0. 0. 0. 0. 0. 0. 0.],-0.00390625,0.0,0.11328125,[0. 0. 0. 0. 0. 0. 0. 0. 0.],-1.5703125,0.23046875,9.65234375,[0. 0. 0. 0. 0. 0. 0. 0. 0.]
1742656844663798494,1742656844,652106530,imu_link,-0.01544189453125,0.09490966796875,0.01141357421875,0.99530029296875,[0. 0. 0. 0. 0. 0. 0. 0. 0.],-0.01171875,0.005859375,0.072265625,[0. 0. 0. 0. 0. 0. 0. 0. 0.],-2.0703125,0.23046875,9.65234375,[0. 0. 0. 0. 0. 0. 0. 0. 0.]
1742656844674345063,1742656844,672067366,imu_link,-0.01544189453125,0.09490966796875,0.01141357421875,0.99530029296875,[0. 0. 0. 0. 0. 0. 0. 0. 0.],-0.01171875,0.005859375,0.072265625,[0. 0. 0. 0. 0. 0. 0. 0. 0.],-2.0703125,0.23046875,9.65234375,[0. 0. 0. 0. 0. 0. 0. 0. 0.]
1742656844710024948,1742656844,692112293,imu_link,-0.01568603515625,0.0946044921875,0.013427734375,0.99530029296875,[0. 0. 0. 0. 0. 0. 0. 0. 0.],0.0,0.00390625,0.03515625,[0. 0. 0. 0. 0. 0. 0. 0. 0.],-2.22265625,-0.11328125,9.46484375,[0. 0. 0. 0. 0. 0. 0. 0. 0.]
1742656844714708211,1742656844,712888435,imu_link,-0.01568603515625,0.0946044921875,0.013427734375,0.99530029296875,[0. 0. 0. 0. 0. 0. 0. 0. 0.],0.0,0.00390625,0.03515625,[0. 0. 0. 0. 0. 0. 0. 0. 0.],-2.22265625,-0.11328125,9.46484375,[0. 0. 0. 0. 0. 0. 0. 0. 0.]
1742656844745311708,1742656844,732096650,imu_link,-0.01593017578125,0.09417724609375,0.0142822265625,0.99530029296875,[0. 0. 0. 0. 0. 0. 0. 0. 0.],0.0,0.00390625,0.03515625,[0. 0. 0. 0. 0. 0. 0. 0. 0.],-2.14453125,-0.34375,9.5390625,[0. 0. 0. 0. 0. 0. 0. 0. 0.]
1742656844763423490,1742656844,752112707,imu_link,-0.01593017578125,0.09417724609375,0.0142822265625,0.99530029296875,[0. 0. 0. 0. 0. 0. 0. 0. 0.],0.005859375,-0.00390625,0.01171875,[0. 0. 0. 0. 0. 0. 0. 0. 0.],-2.4140625,0.078125,9.5,[0. 0. 0. 0. 0. 0. 0. 0. 0.]
1742656844774168687,1742656844,772087099,imu_link,-0.01593017578125,0.09417724609375,0.0142822265625,0.99530029296875,[0. 0. 0. 0. 0. 0. 0. 0. 0.],0.005859375,-0.00390625,0.01171875,[0. 0. 0. 0. 0. 0. 0. 0. 0.],-2.4140625,0.078125,9.5,[0. 0. 0. 0. 0. 0. 0. 0. 0.]
1742656844810163957,1742656844,792296302,imu_link,-0.01611328125,0.09381103515625,0.0147705078125,0.995361328125,[0. 0. 0. 0. 0. 0. 0. 0. 0.],0.01171875,0.0,-0.03125,[0. 0. 0. 0. 0. 0. 0. 0. 0.],-2.52734375,0.23046875,9.54296875,[0. 0. 0. 0. 0. 0. 0. 0. 0.]
1742656844819485299,1742656844,816021967,imu_link,-0.01611328125,0.09381103515625,0.0147705078125,0.995361328125,[0. 0. 0. 0. 0. 0. 0. 0. 0.],0.01171875,0.0,-0.03125,[0. 0. 0. 0. 0. 0. 0. 0. 0.],-2.453125,-0.078125,9.61328125,[0. 0. 0. 0. 0. 0. 0. 0. 0.]
1742656844849394156,1742656844,832110883,imu_link,-0.016357421875,0.09344482421875,0.0140380859375,0.995361328125,[0. 0. 0. 0. 0. 0. 0. 0. 0.],0.01171875,0.0,-0.03125,[0. 0. 0. 0. 0. 0. 0. 0. 0.],-2.296875,-0.19140625,9.5,[0. 0. 0. 0. 0. 0. 0. 0. 0.]
1742656844854507729,1742656844,852171384,imu_link,-0.016357421875,0.09344482421875,0.0140380859375,0.995361328125,[0. 0. 0. 0. 0. 0. 0. 0. 0.],0.01171875,0.0,-0.03125,[0. 0. 0. 0. 0. 0. 0. 0. 0.],-2.296875,-0.19140625,9.5,[0. 0. 0. 0. 0. 0. 0. 0. 0.]
1742656844873979570,1742656844,872078554,imu_link,-0.016357421875,0.09344482421875,0.0140380859375,0.995361328125,[0. 0. 0. 0. 0. 0. 0. 0. 0.],0.005859375,-0.00390625,-0.052734375,[0. 0. 0. 0. 0. 0. 0. 0. 0.],-2.296875,-0.19140625,9.5,[0. 0. 0. 0. 0. 0. 0. 0. 0.]
1742656844893915832,1742656844,892029649,imu_link,-0.0166015625,0.09307861328125,0.01275634765625,0.99542236328125,[0. 0. 0. 0. 0. 0. 0. 0. 0.],0.005859375,-0.00390625,-0.052734375,[0. 0. 0. 0. 0. 0. 0. 0. 0.],-2.10546875,-0.23046875,9.578125,[0. 0. 0. 0. 0. 0. 0. 0. 0.]
1742656844923653227,1742656844,912129354,imu_link,-0.0166015625,0.09307861328125,0.01275634765625,0.99542236328125,[0. 0. 0. 0. 0. 0. 0. 0. 0.],0.01171875,0.0,-0.0390625,[0. 0. 0. 0. 0. 0. 0. 0. 0.],-1.68359375,-0.421875,9.54296875,[0. 0. 0. 0. 0. 0. 0. 0. 0.]
1742656844948221365,1742656844,932102560,imu_link,-0.01666259765625,0.0926513671875,0.0115966796875,0.9954833984375,[0. 0. 0. 0. 0. 0. 0. 0. 0.],0.01171875,0.0,-0.0390625,[0. 0. 0. 0. 0. 0. 0. 0. 0.],-1.41796875,-0.4609375,9.609375,[0. 0. 0. 0. 0. 0. 0. 0. 0.]
1742656844954399556,1742656844,952086470,imu_link,-0.01666259765625,0.0926513671875,0.0115966796875,0.9954833984375,[0. 0. 0. 0. 0. 0. 0. 0. 0.],0.01171875,0.0,-0.0390625,[0. 0. 0. 0. 0. 0. 0. 0. 0.],-1.41796875,-0.4609375,9.609375,[0. 0. 0. 0. 0. 0. 0. 0. 0.]
1742656844988154092,1742656844,972128546,imu_link,-0.016845703125,0.09222412109375,0.0108642578125,0.99554443359375,[0. 0. 0. 0. 0. 0. 0. 0. 0.],0.005859375,0.0,-0.02734375,[0. 0. 0. 0. 0. 0. 0. 0. 0.],-1.33984375,-0.57421875,9.578125,[0. 0. 0. 0. 0. 0. 0. 0. 0.]
1742656844994152156,1742656844,992119733,imu_link,-0.016845703125,0.09222412109375,0.0108642578125,0.99554443359375,[0. 0. 0. 0. 0. 0. 0. 0. 0.],0.005859375,0.0,-0.02734375,[0. 0. 0. 0. 0. 0. 0. 0. 0.],-1.33984375,-0.57421875,9.578125,[0. 0. 0. 0. 0. 0. 0. 0. 0.]
1742656845022871508,1742656845,12113033,imu_link,-0.016845703125,0.09222412109375,0.0108642578125,0.99554443359375,[0. 0. 0. 0. 0. 0. 0. 0. 0.],-0.005859375,0.0,-0.001953125,[0. 0. 0. 0. 0. 0. 0. 0. 0.],-1.30078125,-0.61328125,9.61328125,[0. 0. 0. 0. 0. 0. 0. 0. 0.]
1742656845045659703,1742656845,32042185,imu_link,-0.01702880859375,0.091796875,0.01068115234375,0.99554443359375,[0. 0. 0. 0. 0. 0. 0. 0. 0.],-0.005859375,0.0,-0.001953125,[0. 0. 0. 0. 0. 0. 0. 0. 0.],-1.5703125,-0.49609375,9.69140625,[0. 0. 0. 0. 0. 0. 0. 0. 0.]
1742656845053971427,1742656845,52072078,imu_link,-0.01702880859375,0.091796875,0.01068115234375,0.99554443359375,[0. 0. 0. 0. 0. 0. 0. 0. 0.],-0.005859375,0.0,-0.001953125,[0. 0. 0. 0. 0. 0. 0. 0. 0.],-1.5703125,-0.49609375,9.69140625,[0. 0. 0. 0. 0. 0. 0. 0. 0.]
1742656845088538457,1742656845,72074970,imu_link,-0.01715087890625,0.09161376953125,0.01104736328125,0.99560546875,[0. 0. 0. 0. 0. 0. 0. 0. 0.],-0.01171875,0.00390625,0.017578125,[0. 0. 0. 0. 0. 0. 0. 0. 0.],-1.87890625,-0.3046875,9.5,[0. 0. 0. 0. 0. 0. 0. 0. 0.]
1742656845095472067,1742656845,92744763,imu_link,-0.01715087890625,0.09161376953125,0.01104736328125,0.99560546875,[0. 0. 0. 0. 0. 0. 0. 0. 0.],-0.01171875,0.00390625,0.017578125,[0. 0. 0. 0. 0. 0. 0. 0. 0.],-1.87890625,-0.3046875,9.5,[0. 0. 0. 0. 0. 0. 0. 0. 0.]
1742656845119304825,1742656845,112481418,imu_link,-0.01715087890625,0.09161376953125,0.01104736328125,0.99560546875,[0. 0. 0. 0. 0. 0. 0. 0. 0.],-0.00390625,-0.001953125,0.01171875,[0. 0. 0. 0. 0. 0. 0. 0. 0.],-1.9921875,-0.3046875,9.609375,[0. 0. 0. 0. 0. 0. 0. 0. 0.]
1742656845146033996,1742656845,132063723,imu_link,-0.01727294921875,0.09130859375,0.0113525390625,0.99560546875,[0. 0. 0. 0. 0. 0. 0. 0. 0.],-0.00390625,-0.001953125,0.01171875,[0. 0. 0. 0. 0. 0. 0. 0. 0.],-2.03125,-0.3828125,9.5,[0. 0. 0. 0. 0. 0. 0. 0. 0.]
1742656845154029761,1742656845,152095837,imu_link,-0.01727294921875,0.09130859375,0.0113525390625,0.99560546875,[0. 0. 0. 0. 0. 0. 0. 0. 0.],-0.00390625,-0.001953125,0.01171875,[0. 0. 0. 0. 0. 0. 0. 0. 0.],-2.03125,-0.3828125,9.5,[0. 0. 0. 0. 0. 0. 0. 0. 0.]
1742656845173901636,1742656845,172049990,imu_link,-0.01727294921875,0.09130859375,0.0113525390625,0.99560546875,[0. 0. 0. 0. 0. 0. 0. 0. 0.],-0.00390625,-0.00390625,0.02734375,[0. 0. 0. 0. 0. 0. 0. 0. 0.],-2.03125,-0.3046875,9.609375,[0. 0. 0. 0. 0. 0. 0. 0. 0.]
1742656845199317488,1742656845,192133641,imu_link,-0.0174560546875,0.09088134765625,0.011962890625,0.99560546875,[0. 0. 0. 0. 0. 0. 0. 0. 0.],-0.00390625,-0.00390625,0.02734375,[0. 0. 0. 0. 0. 0. 0. 0. 0.],-2.14453125,-0.23046875,9.50390625,[0. 0. 0. 0. 0. 0. 0. 0. 0.]
1742656845219237919,1742656845,212027127,imu_link,-0.0174560546875,0.09088134765625,0.011962890625,0.99560546875,[0. 0. 0. 0. 0. 0. 0. 0. 0.],-0.009765625,0.001953125,0.015625,[0. 0. 0. 0. 0. 0. 0. 0. 0.],-2.14453125,-0.23046875,9.50390625,[0. 0. 0. 0. 0. 0. 0. 0. 0.]
1742656845238149509,1742656845,234762675,imu_link,-0.0177001953125,0.090576171875,0.01239013671875,0.99566650390625,[0. 0. 0. 0. 0. 0. 0. 0. 0.],-0.009765625,0.001953125,0.015625,[0. 0. 0. 0. 0. 0. 0. 0. 0.],-2.10546875,-0.15234375,9.58203125,[0. 0. 0. 0. 0. 0. 0. 0. 0.]
1742656845262180876,1742656845,252181540,imu_link,-0.0177001953125,0.090576171875,0.01239013671875,0.99566650390625,[0. 0. 0. 0. 0. 0. 0. 0. 0.],-0.009765625,0.001953125,0.015625,[0. 0. 0. 0. 0. 0. 0. 0. 0.],-2.10546875,-0.15234375,9.58203125,[0. 0. 0. 0. 0. 0. 0. 0. 0.]
1742656845273861415,1742656845,272031657,imu_link,-0.0177001953125,0.090576171875,0.01239013671875,0.99566650390625,[0. 0. 0. 0. 0. 0. 0. 0. 0.],-0.005859375,-0.001953125,-0.005859375,[0. 0. 0. 0. 0. 0. 0. 0. 0.],-2.03125,-0.11328125,9.578125,[0. 0. 0. 0. 0. 0. 0. 0. 0.]
1742656845299445598,1742656845,292347806,imu_link,-0.0179443359375,0.09027099609375,0.01226806640625,0.99566650390625,[0. 0. 0. 0. 0. 0. 0. 0. 0.],-0.005859375,-0.001953125,-0.005859375,[0. 0. 0. 0. 0. 0. 0. 0. 0.],-1.87890625,-0.23046875,9.4609375,[0. 0. 0. 0. 0. 0. 0. 0. 0.]
1742656845322689641,1742656845,312038109,imu_link,-0.0179443359375,0.09027099609375,0.01226806640625,0.99566650390625,[0. 0. 0. 0. 0. 0. 0. 0. 0.],-0.001953125,-0.001953125,-0.015625,[0. 0. 0. 0. 0. 0. 0. 0. 0.],-1.87890625,-0.23046875,9.4609375,[0. 0. 0. 0. 0. 0. 0. 0. 0.]
1742656845344394737,1742656845,332070446,imu_link,-0.01812744140625,0.0899658203125,0.011962890625,0.9957275390625,[0. 0. 0. 0. 0. 0. 0. 0. 0.],-0.001953125,-0.001953125,-0.015625,[0. 0. 0. 0. 0. 0. 0. 0. 0.],-1.87890625,-0.23046875,9.61328125,[0. 0. 0. 0. 0. 0. 0. 0. 0.]
1742656845362685111,1742656845,352050265,imu_link,-0.01812744140625,0.0899658203125,0.011962890625,0.9957275390625,[0. 0. 0. 0. 0. 0. 0. 0. 0.],-0.001953125,-0.001953125,-0.029296875,[0. 0. 0. 0. 0. 0. 0. 0. 0.],-1.83984375,-0.23046875,9.5390625,[0. 0. 0. 0. 0. 0. 0. 0. 0.]
1742656845373865489,1742656845,372043454,imu_link,-0.01812744140625,0.0899658203125,0.011962890625,0.9957275390625,[0. 0. 0. 0. 0. 0. 0. 0. 0.],-0.001953125,-0.001953125,-0.029296875,[0. 0. 0. 0. 0. 0. 0. 0. 0.],-1.83984375,-0.23046875,9.5390625,[0. 0. 0. 0. 0. 0. 0. 0. 0.]
1742656845394336618,1742656845,392067142,imu_link,-0.0184326171875,0.08953857421875,0.01123046875,0.9957275390625,[0. 0. 0. 0. 0. 0. 0. 0. 0.],-0.001953125,-0.001953125,-0.029296875,[0. 0. 0. 0. 0. 0. 0. 0. 0.],-1.83984375,-0.3046875,9.578125,[0. 0. 0. 0. 0. 0. 0. 0. 0.]
1742656845422747548,1742656845,412110609,imu_link,-0.0184326171875,0.08953857421875,0.01123046875,0.9957275390625,[0. 0. 0. 0. 0. 0. 0. 0. 0.],0.00390625,0.0,-0.015625,[0. 0. 0. 0. 0. 0. 0. 0. 0.],-1.953125,-0.26953125,9.65234375,[0. 0. 0. 0. 0. 0. 0. 0. 0.]
1742656845448438971,1742656845,432134279,imu_link,-0.0186767578125,0.089111328125,0.0107421875,0.99578857421875,[0. 0. 0. 0. 0. 0. 0. 0. 0.],0.00390625,0.0,-0.015625,[0. 0. 0. 0. 0. 0. 0. 0. 0.],-1.953125,-0.26953125,9.65234375,[0. 0. 0. 0. 0. 0. 0. 0. 0.]
1742656845453997837,1742656845,452230171,imu_link,-0.0186767578125,0.089111328125,0.0107421875,0.99578857421875,[0. 0. 0. 0. 0. 0. 0. 0. 0.],0.00390625,0.0,-0.015625,[0. 0. 0. 0. 0. 0. 0. 0. 0.],-1.953125,-0.3046875,9.46484375,[0. 0. 0. 0. 0. 0. 0. 0. 0.]
1742656845474019099,1742656845,472143990,imu_link,-0.0186767578125,0.089111328125,0.0107421875,0.99578857421875,[0. 0. 0. 0. 0. 0. 0. 0. 0.],0.0078125,-0.001953125,-0.033203125,[0. 0. 0. 0. 0. 0. 0. 0. 0.],-1.953125,-0.3046875,9.46484375,[0. 0. 0. 0. 0. 0. 0. 0. 0.]
1742656845494416543,1742656845,492192679,imu_link,-0.01776123046875,0.091552734375,0.0101318359375,0.99560546875,[0. 0. 0. 0. 0. 0. 0. 0. 0.],0.0078125,-0.001953125,-0.033203125,[0. 0. 0. 0. 0. 0. 0. 0. 0.],-1.87890625,-0.23046875,9.65234375,[0. 0. 0. 0. 0. 0. 0. 0. 0.]
1742656845522683327,1742656845,512095554,imu_link,-0.01776123046875,0.091552734375,0.0101318359375,0.99560546875,[0. 0. 0. 0. 0. 0. 0. 0. 0.],0.009765625,0.001953125,-0.025390625,[0. 0. 0. 0. 0. 0. 0. 0. 0.],-1.80078125,-0.34375,9.578125,[0. 0. 0. 0. 0. 0. 0. 0. 0.]
1742656845547660017,1742656845,532093243,imu_link,-0.01708984375,0.09326171875,0.00958251953125,0.99542236328125,[0. 0. 0. 0. 0. 0. 0. 0. 0.],0.009765625,0.001953125,-0.025390625,[0. 0. 0. 0. 0. 0. 0. 0. 0.],-1.83984375,-0.34375,9.54296875,[0. 0. 0. 0. 0. 0. 0. 0. 0.]
1742656845557454096,1742656845,552024803,imu_link,-0.01708984375,0.09326171875,0.00958251953125,0.99542236328125,[0. 0. 0. 0. 0. 0. 0. 0. 0.],0.009765625,0.001953125,-0.025390625,[0. 0. 0. 0. 0. 0. 0. 0. 0.],-1.83984375,-0.34375,9.54296875,[0. 0. 0. 0. 0. 0. 0. 0. 0.]
1742656845587766820,1742656845,572056806,imu_link,-0.016845703125,0.09381103515625,0.009033203125,0.99542236328125,[0. 0. 0. 0. 0. 0. 0. 0. 0.],0.015625,0.00390625,-0.0234375,[0. 0. 0. 0. 0. 0. 0. 0. 0.],-1.80078125,-0.3046875,9.609375,[0. 0. 0. 0. 0. 0. 0. 0. 0.]
1742656845594285823,1742656845,592186531,imu_link,-0.016845703125,0.09381103515625,0.009033203125,0.99542236328125,[0. 0. 0. 0. 0. 0. 0. 0. 0.],0.015625,0.00390625,-0.0234375,[0. 0. 0. 0. 0. 0. 0. 0. 0.],-1.80078125,-0.3046875,9.609375,[0. 0. 0. 0. 0. 0. 0. 0. 0.]
1742656845622400349,1742656845,612187924,imu_link,-0.016845703125,0.09381103515625,0.009033203125,0.99542236328125,[0. 0. 0. 0. 0. 0. 0. 0. 0.],0.01171875,0.00390625,-0.0234375,[0. 0. 0. 0. 0. 0. 0. 0. 0.],-1.80078125,-0.34375,9.4609375,[0. 0. 0. 0. 0. 0. 0. 0. 0.]
1742656845641496641,1742656845,638686708,imu_link,-0.0167236328125,0.09417724609375,0.00848388671875,0.995361328125,[0. 0. 0. 0. 0. 0. 0. 0. 0.],0.01171875,0.00390625,-0.0234375,[0. 0. 0. 0. 0. 0. 0. 0. 0.],-1.87890625,-0.3046875,9.578125,[0. 0. 0. 0. 0. 0. 0. 0. 0.]
1742656845658339438,1742656845,652135617,imu_link,-0.0167236328125,0.09417724609375,0.00848388671875,0.995361328125,[0. 0. 0. 0. 0. 0. 0. 0. 0.],0.01171875,0.00390625,-0.0234375,[0. 0. 0. 0. 0. 0. 0. 0. 0.],-1.87890625,-0.3046875,9.578125,[0. 0. 0. 0. 0. 0. 0. 0. 0.]
1742656845687803672,1742656845,672046029,imu_link,-0.01678466796875,0.094482421875,0.0079345703125,0.995361328125,[0. 0. 0. 0. 0. 0. 0. 0. 0.],0.001953125,0.001953125,-0.0234375,[0. 0. 0. 0. 0. 0. 0. 0. 0.],-1.9921875,-0.23046875,9.6484375,[0. 0. 0. 0. 0. 0. 0. 0. 0.]
1742656845694359045,1742656845,692145384,imu_link,-0.01678466796875,0.094482421875,0.0079345703125,0.995361328125,[0. 0. 0. 0. 0. 0. 0. 0. 0.],0.001953125,0.001953125,-0.0234375,[0. 0. 0. 0. 0. 0. 0. 0. 0.],-1.9921875,-0.23046875,9.6484375,[0. 0. 0. 0. 0. 0. 0. 0. 0.]
1742656845719040331,1742656845,712083685,imu_link,-0.01678466796875,0.094482421875,0.0079345703125,0.995361328125,[0. 0. 0. 0. 0. 0. 0. 0. 0.],0.00390625,0.0,-0.02734375,[0. 0. 0. 0. 0. 0. 0. 0. 0.],-2.03125,-0.34375,9.5,[0. 0. 0. 0. 0. 0. 0. 0. 0.]
1742656845748098588,1742656845,732044800,imu_link,-0.01678466796875,0.0947265625,0.00726318359375,0.995361328125,[0. 0. 0. 0. 0. 0. 0. 0. 0.],0.00390625,0.0,-0.02734375,[0. 0. 0. 0. 0. 0. 0. 0. 0.],-1.953125,-0.3046875,9.54296875,[0. 0. 0. 0. 0. 0. 0. 0. 0.]
1742656845757697853,1742656845,752024767,imu_link,-0.01678466796875,0.0947265625,0.00726318359375,0.995361328125,[0. 0. 0. 0. 0. 0. 0. 0. 0.],0.0,-0.005859375,-0.015625,[0. 0. 0. 0. 0. 0. 0. 0. 0.],-1.953125,-0.3046875,9.54296875,[0. 0. 0. 0. 0. 0. 0. 0. 0.]
1742656845783853179,1742656845,772251991,imu_link,-0.016845703125,0.09490966796875,0.0068359375,0.99530029296875,[0. 0. 0. 0. 0. 0. 0. 0. 0.],0.0,-0.005859375,-0.015625,[0. 0. 0. 0. 0. 0. 0. 0. 0.],-1.87890625,-0.34375,9.609375,[0. 0. 0. 0. 0. 0. 0. 0. 0.]
1742656845800027039,1742656845,792381789,imu_link,-0.016845703125,0.09490966796875,0.0068359375,0.99530029296875,[0. 0. 0. 0. 0. 0. 0. 0. 0.],0.0,-0.005859375,-0.015625,[0. 0. 0. 0. 0. 0. 0. 0. 0.],-1.87890625,-0.34375,9.54296875,[0. 0. 0. 0. 0. 0. 0. 0. 0.]
1742656845818769853,1742656845,812036778,imu_link,-0.016845703125,0.09490966796875,0.0068359375,0.99530029296875,[0. 0. 0. 0. 0. 0. 0. 0. 0.],-0.001953125,-0.001953125,-0.021484375,[0. 0. 0. 0. 0. 0. 0. 0. 0.],-1.87890625,-0.34375,9.54296875,[0. 0. 0. 0. 0. 0. 0. 0. 0.]
1742656845845817576,1742656845,832077467,imu_link,-0.016845703125,0.0950927734375,0.00634765625,0.99530029296875,[0. 0. 0. 0. 0. 0. 0. 0. 0.],-0.001953125,-0.001953125,-0.021484375,[0. 0. 0. 0. 0. 0. 0. 0. 0.],-1.83984375,-0.3046875,9.61328125,[0. 0. 0. 0. 0. 0. 0. 0. 0.]
1742656845862063547,1742656845,852028971,imu_link,-0.016845703125,0.0950927734375,0.00634765625,0.99530029296875,[0. 0. 0. 0. 0. 0. 0. 0. 0.],-0.001953125,-0.001953125,-0.021484375,[0. 0. 0. 0. 0. 0. 0. 0. 0.],-1.83984375,-0.3046875,9.61328125,[0. 0. 0. 0. 0. 0. 0. 0. 0.]
1742656845884096047,1742656845,872079937,imu_link,-0.01690673828125,0.09527587890625,0.00592041015625,0.99530029296875,[0. 0. 0. 0. 0. 0. 0. 0. 0.],0.0,-0.001953125,-0.017578125,[0. 0. 0. 0. 0. 0. 0. 0. 0.],-1.87890625,-0.34375,9.609375,[0. 0. 0. 0. 0. 0. 0. 0. 0.]
1742656845894833522,1742656845,892066404,imu_link,-0.01690673828125,0.09527587890625,0.00592041015625,0.99530029296875,[0. 0. 0. 0. 0. 0. 0. 0. 0.],0.0,-0.001953125,-0.017578125,[0. 0. 0. 0. 0. 0. 0. 0. 0.],-1.9140625,-0.26953125,9.5,[0. 0. 0. 0. 0. 0. 0. 0. 0.]
1742656845922109298,1742656845,912111352,imu_link,-0.01690673828125,0.09527587890625,0.00592041015625,0.99530029296875,[0. 0. 0. 0. 0. 0. 0. 0. 0.],-0.001953125,0.0,-0.025390625,[0. 0. 0. 0. 0. 0. 0. 0. 0.],-1.9140625,-0.26953125,9.61328125,[0. 0. 0. 0. 0. 0. 0. 0. 0.]
1742656845938036236,1742656845,934212740,imu_link,-0.0169677734375,0.095458984375,0.00531005859375,0.99530029296875,[0. 0. 0. 0. 0. 0. 0. 0. 0.],-0.001953125,0.0,-0.025390625,[0. 0. 0. 0. 0. 0. 0. 0. 0.],-1.9140625,-0.26953125,9.61328125,[0. 0. 0. 0. 0. 0. 0. 0. 0.]
1742656845962797095,1742656845,952101656,imu_link,-0.0169677734375,0.095458984375,0.00531005859375,0.99530029296875,[0. 0. 0. 0. 0. 0. 0. 0. 0.],0.00390625,0.00390625,-0.015625,[0. 0. 0. 0. 0. 0. 0. 0. 0.],-1.87890625,-0.3828125,9.54296875,[0. 0. 0. 0. 0. 0. 0. 0. 0.]
1742656845989854244,1742656845,972158733,imu_link,-0.0169677734375,0.09564208984375,0.00482177734375,0.9952392578125,[0. 0. 0. 0. 0. 0. 0. 0. 0.],0.00390625,0.00390625,-0.015625,[0. 0. 0. 0. 0. 0. 0. 0. 0.],-1.87890625,-0.3828125,9.54296875,[0. 0. 0. 0. 0. 0. 0. 0. 0.]
1742656845995238889,1742656845,992157885,imu_link,-0.0169677734375,0.09564208984375,0.00482177734375,0.9952392578125,[0. 0. 0. 0. 0. 0. 0. 0. 0.],0.00390625,0.00390625,-0.015625,[0. 0. 0. 0. 0. 0. 0. 0. 0.],-1.9140625,-0.3046875,9.58203125,[0. 0. 0. 0. 0. 0. 0. 0. 0.]
1742656846022788015,1742656846,12112612,imu_link,-0.0169677734375,0.09564208984375,0.00482177734375,0.9952392578125,[0. 0. 0. 0. 0. 0. 0. 0. 0.],0.005859375,0.00390625,-0.013671875,[0. 0. 0. 0. 0. 0. 0. 0. 0.],-1.9140625,-0.3046875,9.609375,[0. 0. 0. 0. 0. 0. 0. 0. 0.]
1742656846038296032,1742656846,34773256,imu_link,-0.01690673828125,0.0958251953125,0.00445556640625,0.9952392578125,[0. 0. 0. 0. 0. 0. 0. 0. 0.],0.005859375,0.00390625,-0.013671875,[0. 0. 0. 0. 0. 0. 0. 0. 0.],-1.9140625,-0.3046875,9.609375,[0. 0. 0. 0. 0. 0. 0. 0. 0.]
1742656846062983376,1742656846,52101216,imu_link,-0.01690673828125,0.0958251953125,0.00445556640625,0.9952392578125,[0. 0. 0. 0. 0. 0. 0. 0. 0.],0.005859375,0.001953125,-0.0234375,[0. 0. 0. 0. 0. 0. 0. 0. 0.],-1.9140625,-0.26953125,9.4609375,[0. 0. 0. 0. 0. 0. 0. 0. 0.]
1742656846087238187,1742656846,72171239,imu_link,-0.0169677734375,0.095947265625,0.00390625,0.9952392578125,[0. 0. 0. 0. 0. 0. 0. 0. 0.],0.005859375,0.001953125,-0.0234375,[0. 0. 0. 0. 0. 0. 0. 0. 0.],-1.9140625,-0.26953125,9.4609375,[0. 0. 0. 0. 0. 0. 0. 0. 0.]
1742656846093802153,1742656846,92037320,imu_link,-0.0169677734375,0.095947265625,0.00390625,0.9952392578125,[0. 0. 0. 0. 0. 0. 0. 0. 0.],0.005859375,0.001953125,-0.0234375,[0. 0. 0. 0. 0. 0. 0. 0. 0.],-1.87890625,-0.3046875,9.61328125,[0. 0. 0. 0. 0. 0. 0. 0. 0.]
1742656846132539344,1742656846,112153139,imu_link,-0.01702880859375,0.0960693359375,0.00335693359375,0.9952392578125,[0. 0. 0. 0. 0. 0. 0. 0. 0.],0.00390625,0.001953125,-0.025390625,[0. 0. 0. 0. 0. 0. 0. 0. 0.],-1.9140625,-0.26953125,9.578125,[0. 0. 0. 0. 0. 0. 0. 0. 0.]
1742656846142464940,1742656846,134990669,imu_link,-0.01702880859375,0.0960693359375,0.00335693359375,0.9952392578125,[0. 0. 0. 0. 0. 0. 0. 0. 0.],0.00390625,0.001953125,-0.025390625,[0. 0. 0. 0. 0. 0. 0. 0. 0.],-1.9140625,-0.26953125,9.578125,[0. 0. 0. 0. 0. 0. 0. 0. 0.]
1742656846159513218,1742656846,152069540,imu_link,-0.01702880859375,0.0960693359375,0.00335693359375,0.9952392578125,[0. 0. 0. 0. 0. 0. 0. 0. 0.],0.00390625,0.001953125,-0.025390625,[0. 0. 0. 0. 0. 0. 0. 0. 0.],-1.953125,-0.3046875,9.54296875,[0. 0. 0. 0. 0. 0. 0. 0. 0.]
1742656846186798959,1742656846,172128655,imu_link,-0.01715087890625,0.09625244140625,0.00274658203125,0.99517822265625,[0. 0. 0. 0. 0. 0. 0. 0. 0.],0.00390625,0.001953125,-0.025390625,[0. 0. 0. 0. 0. 0. 0. 0. 0.],-1.9921875,-0.3046875,9.609375,[0. 0. 0. 0. 0. 0. 0. 0. 0.]
1742656846194455247,1742656846,192032847,imu_link,-0.01715087890625,0.09625244140625,0.00274658203125,0.99517822265625,[0. 0. 0. 0. 0. 0. 0. 0. 0.],0.00390625,0.001953125,-0.025390625,[0. 0. 0. 0. 0. 0. 0. 0. 0.],-1.9921875,-0.3046875,9.609375,[0. 0. 0. 0. 0. 0. 0. 0. 0.]
1742656846232458946,1742656846,212063278,imu_link,-0.0172119140625,0.096435546875,0.002197265625,0.99517822265625,[0. 0. 0. 0. 0. 0. 0. 0. 0.],0.0,0.00390625,-0.021484375,[0. 0. 0. 0. 0. 0. 0. 0. 0.],-2.0703125,-0.3046875,9.5390625,[0. 0. 0. 0. 0. 0. 0. 0. 0.]
1742656846242756297,1742656846,240618561,imu_link,-0.0172119140625,0.096435546875,0.002197265625,0.99517822265625,[0. 0. 0. 0. 0. 0. 0. 0. 0.],0.0,0.00390625,-0.021484375,[0. 0. 0. 0. 0. 0. 0. 0. 0.],-2.03125,-0.3046875,9.54296875,[0. 0. 0. 0. 0. 0. 0. 0. 0.]
1742656846260601252,1742656846,252892872,imu_link,-0.0172119140625,0.096435546875,0.002197265625,0.99517822265625,[0. 0. 0. 0. 0. 0. 0. 0. 0.],0.0,0.001953125,-0.01953125,[0. 0. 0. 0. 0. 0. 0. 0. 0.],-2.03125,-0.3046875,9.54296875,[0. 0. 0. 0. 0. 0. 0. 0. 0.]
1742656846286773505,1742656846,272081701,imu_link,-0.01727294921875,0.09661865234375,0.001708984375,0.99517822265625,[0. 0. 0. 0. 0. 0. 0. 0. 0.],0.0,0.001953125,-0.01953125,[0. 0. 0. 0. 0. 0. 0. 0. 0.],-2.03125,-0.34375,9.61328125,[0. 0. 0. 0. 0. 0. 0. 0. 0.]
1742656846300411950,1742656846,292583146,imu_link,-0.01727294921875,0.09661865234375,0.001708984375,0.99517822265625,[0. 0. 0. 0. 0. 0. 0. 0. 0.],0.0,0.001953125,-0.01953125,[0. 0. 0. 0. 0. 0. 0. 0. 0.],-2.03125,-0.34375,9.61328125,[0. 0. 0. 0. 0. 0. 0. 0. 0.]
1742656846320172995,1742656846,312057472,imu_link,-0.01727294921875,0.09661865234375,0.001708984375,0.99517822265625,[0. 0. 0. 0. 0. 0. 0. 0. 0.],-0.001953125,0.001953125,-0.0234375,[0. 0. 0. 0. 0. 0. 0. 0. 0.],-2.0703125,-0.34375,9.54296875,[0. 0. 0. 0. 0. 0. 0. 0. 0.]
1742656846347288016,1742656846,332152402,imu_link,-0.017333984375,0.09686279296875,0.00115966796875,0.9951171875,[0. 0. 0. 0. 0. 0. 0. 0. 0.],-0.001953125,0.001953125,-0.0234375,[0. 0. 0. 0. 0. 0. 0. 0. 0.],-2.14453125,-0.26953125,9.578125,[0. 0. 0. 0. 0. 0. 0. 0. 0.]
1742656846362336927,1742656846,352030464,imu_link,-0.017333984375,0.09686279296875,0.00115966796875,0.9951171875,[0. 0. 0. 0. 0. 0. 0. 0. 0.],0.001953125,0.00390625,-0.02734375,[0. 0. 0. 0. 0. 0. 0. 0. 0.],-2.14453125,-0.26953125,9.578125,[0. 0. 0. 0. 0. 0. 0. 0. 0.]
1742656846385063940,1742656846,372048007,imu_link,-0.017333984375,0.09716796875,0.00048828125,0.9951171875,[0. 0. 0. 0. 0. 0. 0. 0. 0.],0.001953125,0.00390625,-0.02734375,[0. 0. 0. 0. 0. 0. 0. 0. 0.],-2.03125,-0.3046875,9.50390625,[0. 0. 0. 0. 0. 0. 0. 0. 0.]
1742656846400319311,1742656846,392249325,imu_link,-0.017333984375,0.09716796875,0.00048828125,0.9951171875,[0. 0. 0. 0. 0. 0. 0. 0. 0.],0.001953125,0.00390625,-0.02734375,[0. 0. 0. 0. 0. 0. 0. 0. 0.],-1.76171875,-0.421875,9.5,[0. 0. 0. 0. 0. 0. 0. 0. 0.]
1742656846420244114,1742656846,412120294,imu_link,-0.017333984375,0.09716796875,0.00048828125,0.9951171875,[0. 0. 0. 0. 0. 0. 0. 0. 0.],0.013671875,0.001953125,-0.01171875,[0. 0. 0. 0. 0. 0. 0. 0. 0.],-1.76171875,-0.421875,9.5,[0. 0. 0. 0. 0. 0. 0. 0. 0.]
1742656846447807796,1742656846,432214262,imu_link,-0.01727294921875,0.09747314453125,0.0001220703125,0.9951171875,[0. 0. 0. 0. 0. 0. 0. 0. 0.],0.013671875,0.001953125,-0.01171875,[0. 0. 0. 0. 0. 0. 0. 0. 0.],-1.53125,-0.34375,9.65234375,[0. 0. 0. 0. 0. 0. 0. 0. 0.]
1742656846462968465,1742656846,452277229,imu_link,-0.01727294921875,0.09747314453125,0.0001220703125,0.9951171875,[0. 0. 0. 0. 0. 0. 0. 0. 0.],0.009765625,0.0,-0.02734375,[0. 0. 0. 0. 0. 0. 0. 0. 0.],-1.41796875,-0.26953125,9.54296875,[0. 0. 0. 0. 0. 0. 0. 0. 0.]
1742656846490505426,1742656846,472147051,imu_link,-0.0172119140625,0.09765625,-0.00048828125,0.99505615234375,[0. 0. 0. 0. 0. 0. 0. 0. 0.],0.009765625,0.0,-0.02734375,[0. 0. 0. 0. 0. 0. 0. 0. 0.],-1.41796875,-0.26953125,9.54296875,[0. 0. 0. 0. 0. 0. 0. 0. 0.]
1742656846496013089,1742656846,492643829,imu_link,-0.0172119140625,0.09765625,-0.00048828125,0.99505615234375,[0. 0. 0. 0. 0. 0. 0. 0. 0.],0.009765625,0.0,-0.02734375,[0. 0. 0. 0. 0. 0. 0. 0. 0.],-1.4921875,-0.26953125,9.6875,[0. 0. 0. 0. 0. 0. 0. 0. 0.]
1742656846533971473,1742656846,512113821,imu_link,-0.01727294921875,0.09783935546875,-0.0009765625,0.99505615234375,[0. 0. 0. 0. 0. 0. 0. 0. 0.],0.001953125,0.00390625,-0.015625,[0. 0. 0. 0. 0. 0. 0. 0. 0.],-1.68359375,-0.34375,9.5,[0. 0. 0. 0. 0. 0. 0. 0. 0.]
1742656846539934501,1742656846,536767480,imu_link,-0.01727294921875,0.09783935546875,-0.0009765625,0.99505615234375,[0. 0. 0. 0. 0. 0. 0. 0. 0.],0.001953125,0.00390625,-0.015625,[0. 0. 0. 0. 0. 0. 0. 0. 0.],-1.68359375,-0.34375,9.5,[0. 0. 0. 0. 0. 0. 0. 0. 0.]
1742656846563522857,1742656846,552167646,imu_link,-0.01727294921875,0.09783935546875,-0.0009765625,0.99505615234375,[0. 0. 0. 0. 0. 0. 0. 0. 0.],-0.0078125,0.00390625,-0.029296875,[0. 0. 0. 0. 0. 0. 0. 0. 0.],-1.9140625,-0.26953125,9.65234375,[0. 0. 0. 0. 0. 0. 0. 0. 0.]
1742656846590162549,1742656846,572536907,imu_link,-0.01739501953125,0.09783935546875,-0.00164794921875,0.99505615234375,[0. 0. 0. 0. 0. 0. 0. 0. 0.],-0.0078125,0.00390625,-0.029296875,[0. 0. 0. 0. 0. 0. 0. 0. 0.],-1.9921875,-0.3046875,9.54296875,[0. 0. 0. 0. 0. 0. 0. 0. 0.]
1742656846597441193,1742656846,592530653,imu_link,-0.01739501953125,0.09783935546875,-0.00164794921875,0.99505615234375,[0. 0. 0. 0. 0. 0. 0. 0. 0.],-0.0078125,0.00390625,-0.029296875,[0. 0. 0. 0. 0. 0. 0. 0. 0.],-1.9921875,-0.3046875,9.54296875,[0. 0. 0. 0. 0. 0. 0. 0. 0.]
1742656846619805839,1742656846,612110571,imu_link,-0.01739501953125,0.09783935546875,-0.00164794921875,0.99505615234375,[0. 0. 0. 0. 0. 0. 0. 0. 0.],-0.009765625,0.005859375,-0.029296875,[0. 0. 0. 0. 0. 0. 0. 0. 0.],-2.03125,-0.34375,9.4609375,[0. 0. 0. 0. 0. 0. 0. 0. 0.]
1742656846650701763,1742656846,633704522,imu_link,-0.01751708984375,0.09765625,-0.00238037109375,0.99505615234375,[0. 0. 0. 0. 0. 0. 0. 0. 0.],-0.009765625,0.005859375,-0.029296875,[0. 0. 0. 0. 0. 0. 0. 0. 0.],-2.0703125,-0.34375,9.6484375,[0. 0. 0. 0. 0. 0. 0. 0. 0.]
1742656846660023810,1742656846,657719706,imu_link,-0.01751708984375,0.09765625,-0.00238037109375,0.99505615234375,[0. 0. 0. 0. 0. 0. 0. 0. 0.],0.0,0.00390625,-0.017578125,[0. 0. 0. 0. 0. 0. 0. 0. 0.],-2.0703125,-0.34375,9.6484375,[0. 0. 0. 0. 0. 0. 0. 0. 0.]
1742656846690798403,1742656846,674368785,imu_link,-0.01751708984375,0.0975341796875,-0.00286865234375,0.99505615234375,[0. 0. 0. 0. 0. 0. 0. 0. 0.],0.0,0.00390625,-0.017578125,[0. 0. 0. 0. 0. 0. 0. 0. 0.],-2.10546875,-0.3046875,9.578125,[0. 0. 0. 0. 0. 0. 0. 0. 0.]
1742656846699640862,1742656846,693814777,imu_link,-0.01751708984375,0.0975341796875,-0.00286865234375,0.99505615234375,[0. 0. 0. 0. 0. 0. 0. 0. 0.],0.0,0.00390625,-0.017578125,[0. 0. 0. 0. 0. 0. 0. 0. 0.],-2.10546875,-0.3046875,9.578125,[0. 0. 0. 0. 0. 0. 0. 0. 0.]
1742656846744533413,1742656846,713257919,imu_link,-0.0174560546875,0.09747314453125,-0.0035400390625,0.99505615234375,[0. 0. 0. 0. 0. 0. 0. 0. 0.],0.00390625,0.005859375,-0.029296875,[0. 0. 0. 0. 0. 0. 0. 0. 0.],-2.03125,-0.3828125,9.5,[0. 0. 0. 0. 0. 0. 0. 0. 0.]
1742656846754297714,1742656846,748140022,imu_link,-0.0174560546875,0.09747314453125,-0.0035400390625,0.99505615234375,[0. 0. 0. 0. 0. 0. 0. 0. 0.],0.00390625,0.005859375,-0.029296875,[0. 0. 0. 0. 0. 0. 0. 0. 0.],-1.953125,-0.421875,9.609375,[0. 0. 0. 0. 0. 0. 0. 0. 0.]
1742656846784811032,1742656846,766585618,imu_link,-0.01739501953125,0.0975341796875,-0.003662109375,0.99505615234375,[0. 0. 0. 0. 0. 0. 0. 0. 0.],0.0078125,0.005859375,-0.00390625,[0. 0. 0. 0. 0. 0. 0. 0. 0.],-1.953125,-0.421875,9.609375,[0. 0. 0. 0. 0. 0. 0. 0. 0.]
1742656846791005076,1742656846,788561287,imu_link,-0.01739501953125,0.0975341796875,-0.003662109375,0.99505615234375,[0. 0. 0. 0. 0. 0. 0. 0. 0.],0.0078125,0.005859375,-0.00390625,[0. 0. 0. 0. 0. 0. 0. 0. 0.],-1.953125,-0.421875,9.58203125,[0. 0. 0. 0. 0. 0. 0. 0. 0.]
1742656846799518539,1742656846,795335436,imu_link,-0.01739501953125,0.0975341796875,-0.003662109375,0.99505615234375,[0. 0. 0. 0. 0. 0. 0. 0. 0.],0.0078125,0.005859375,-0.00390625,[0. 0. 0. 0. 0. 0. 0. 0. 0.],-1.953125,-0.421875,9.58203125,[0. 0. 0. 0. 0. 0. 0. 0. 0.]
1742656846841897616,1742656846,812133680,imu_link,-0.01739501953125,0.09765625,-0.00372314453125,0.99505615234375,[0. 0. 0. 0. 0. 0. 0. 0. 0.],0.00390625,0.00390625,-0.001953125,[0. 0. 0. 0. 0. 0. 0. 0. 0.],-1.87890625,-0.34375,9.6484375,[0. 0. 0. 0. 0. 0. 0. 0. 0.]
1742656846862957277,1742656846,849668329,imu_link,-0.01739501953125,0.09765625,-0.00372314453125,0.99505615234375,[0. 0. 0. 0. 0. 0. 0. 0. 0.],0.00390625,0.00390625,0.00390625,[0. 0. 0. 0. 0. 0. 0. 0. 0.],-1.87890625,-0.34375,9.6484375,[0. 0. 0. 0. 0. 0. 0. 0. 0.]
1742656846884852095,1742656846,869515984,imu_link,-0.01739501953125,0.0977783203125,-0.003662109375,0.99505615234375,[0. 0. 0. 0. 0. 0. 0. 0. 0.],0.00390625,0.00390625,0.00390625,[0. 0. 0. 0. 0. 0. 0. 0. 0.],-1.76171875,-0.34375,9.50390625,[0. 0. 0. 0. 0. 0. 0. 0. 0.]
1742656846889918059,1742656846,887650546,imu_link,-0.01739501953125,0.0977783203125,-0.003662109375,0.99505615234375,[0. 0. 0. 0. 0. 0. 0. 0. 0.],0.00390625,0.00390625,0.00390625,[0. 0. 0. 0. 0. 0. 0. 0. 0.],-1.76171875,-0.34375,9.50390625,[0. 0. 0. 0. 0. 0. 0. 0. 0.]
1742656846901138308,1742656846,893053636,imu_link,-0.01739501953125,0.0977783203125,-0.003662109375,0.99505615234375,[0. 0. 0. 0. 0. 0. 0. 0. 0.],0.00390625,0.00390625,0.00390625,[0. 0. 0. 0. 0. 0. 0. 0. 0.],-1.76171875,-0.34375,9.50390625,[0. 0. 0. 0. 0. 0. 0. 0. 0.]
1742656846916096460,1742656846,912470166,imu_link,-0.01739501953125,0.0977783203125,-0.003662109375,0.99505615234375,[0. 0. 0. 0. 0. 0. 0. 0. 0.],0.00390625,0.005859375,0.00390625,[0. 0. 0. 0. 0. 0. 0. 0. 0.],-1.76171875,-0.26953125,9.58203125,[0. 0. 0. 0. 0. 0. 0. 0. 0.]
1742656846946956774,1742656846,932334469,imu_link,-0.0174560546875,0.09796142578125,-0.0035400390625,0.99505615234375,[0. 0. 0. 0. 0. 0. 0. 0. 0.],0.00390625,0.005859375,0.00390625,[0. 0. 0. 0. 0. 0. 0. 0. 0.],-1.76171875,-0.26953125,9.609375,[0. 0. 0. 0. 0. 0. 0. 0. 0.]
1742656846963282949,1742656846,952270253,imu_link,-0.0174560546875,0.09796142578125,-0.0035400390625,0.99505615234375,[0. 0. 0. 0. 0. 0. 0. 0. 0.],0.001953125,0.005859375,-0.0078125,[0. 0. 0. 0. 0. 0. 0. 0. 0.],-1.83984375,-0.3046875,9.5,[0. 0. 0. 0. 0. 0. 0. 0. 0.]
1742656846989081910,1742656846,972547811,imu_link,-0.01751708984375,0.09808349609375,-0.003662109375,0.9949951171875,[0. 0. 0. 0. 0. 0. 0. 0. 0.],0.001953125,0.005859375,-0.0078125,[0. 0. 0. 0. 0. 0. 0. 0. 0.],-1.83984375,-0.3046875,9.5,[0. 0. 0. 0. 0. 0. 0. 0. 0.]
1742656846999966107,1742656846,992004804,imu_link,-0.01751708984375,0.09808349609375,-0.003662109375,0.9949951171875,[0. 0. 0. 0. 0. 0. 0. 0. 0.],0.001953125,0.005859375,-0.0078125,[0. 0. 0. 0. 0. 0. 0. 0. 0.],-1.9140625,-0.34375,9.65234375,[0. 0. 0. 0. 0. 0. 0. 0. 0.]
1742656847018314001,1742656847,12247215,imu_link,-0.01751708984375,0.09808349609375,-0.003662109375,0.9949951171875,[0. 0. 0. 0. 0. 0. 0. 0. 0.],0.0078125,0.005859375,0.00390625,[0. 0. 0. 0. 0. 0. 0. 0. 0.],-1.9140625,-0.34375,9.65234375,[0. 0. 0. 0. 0. 0. 0. 0. 0.]
1742656847047613001,1742656847,32924733,imu_link,-0.017578125,0.09814453125,-0.00360107421875,0.9949951171875,[0. 0. 0. 0. 0. 0. 0. 0. 0.],0.0078125,0.005859375,0.00390625,[0. 0. 0. 0. 0. 0. 0. 0. 0.],-1.9921875,-0.3046875,9.54296875,[0. 0. 0. 0. 0. 0. 0. 0. 0.]
1742656847065209811,1742656847,52027231,imu_link,-0.017578125,0.09814453125,-0.00360107421875,0.9949951171875,[0. 0. 0. 0. 0. 0. 0. 0. 0.],0.00390625,0.00390625,-0.005859375,[0. 0. 0. 0. 0. 0. 0. 0. 0.],-1.9921875,-0.26953125,9.5,[0. 0. 0. 0. 0. 0. 0. 0. 0.]
1742656847098672933,1742656847,77908267,imu_link,-0.0177001953125,0.09820556640625,-0.003662109375,0.9949951171875,[0. 0. 0. 0. 0. 0. 0. 0. 0.],0.00390625,0.00390625,-0.005859375,[0. 0. 0. 0. 0. 0. 0. 0. 0.],-1.9921875,-0.3828125,9.5390625,[0. 0. 0. 0. 0. 0. 0. 0. 0.]
1742656847113317682,1742656847,100709225,imu_link,-0.0177001953125,0.09820556640625,-0.003662109375,0.9949951171875,[0. 0. 0. 0. 0. 0. 0. 0. 0.],0.00390625,0.005859375,0.00390625,[0. 0. 0. 0. 0. 0. 0. 0. 0.],-1.9921875,-0.3828125,9.5390625,[0. 0. 0. 0. 0. 0. 0. 0. 0.]
1742656847134521676,1742656847,116454778,imu_link,-0.01776123046875,0.0982666015625,-0.00360107421875,0.9949951171875,[0. 0. 0. 0. 0. 0. 0. 0. 0.],0.00390625,0.005859375,0.00390625,[0. 0. 0. 0. 0. 0. 0. 0. 0.],-1.953125,-0.34375,9.578125,[0. 0. 0. 0. 0. 0. 0. 0. 0.]
1742656847140777609,1742656847,137821270,imu_link,-0.01776123046875,0.0982666015625,-0.00360107421875,0.9949951171875,[0. 0. 0. 0. 0. 0. 0. 0. 0.],0.00390625,0.005859375,0.00390625,[0. 0. 0. 0. 0. 0. 0. 0. 0.],-1.953125,-0.34375,9.578125,[0. 0. 0. 0. 0. 0. 0. 0. 0.]
1742656847163522216,1742656847,152370355,imu_link,-0.01776123046875,0.0982666015625,-0.00360107421875,0.9949951171875,[0. 0. 0. 0. 0. 0. 0. 0. 0.],0.005859375,0.005859375,0.0,[0. 0. 0. 0. 0. 0. 0. 0. 0.],-1.9921875,-0.3046875,9.54296875,[0. 0. 0. 0. 0. 0. 0. 0. 0.]
1742656847194325051,1742656847,172823097,imu_link,-0.0177001953125,0.098388671875,-0.00360107421875,0.9949951171875,[0. 0. 0. 0. 0. 0. 0. 0. 0.],0.005859375,0.005859375,0.0,[0. 0. 0. 0. 0. 0. 0. 0. 0.],-1.9140625,-0.3828125,9.5390625,[0. 0. 0. 0. 0. 0. 0. 0. 0.]
1742656847201107034,1742656847,197774329,imu_link,-0.0177001953125,0.098388671875,-0.00360107421875,0.9949951171875,[0. 0. 0. 0. 0. 0. 0. 0. 0.],0.005859375,0.005859375,0.0,[0. 0. 0. 0. 0. 0. 0. 0. 0.],-1.9140625,-0.3828125,9.5390625,[0. 0. 0. 0. 0. 0. 0. 0. 0.]
1742656847237195664,1742656847,213923025,imu_link,-0.017578125,0.0985107421875,-0.00341796875,0.9949951171875,[0. 0. 0. 0. 0. 0. 0. 0. 0.],0.009765625,0.001953125,0.009765625,[0. 0. 0. 0. 0. 0. 0. 0. 0.],-1.9140625,-0.3828125,9.61328125,[0. 0. 0. 0. 0. 0. 0. 0. 0.]
1742656847242568439,1742656847,239328363,imu_link,-0.017578125,0.0985107421875,-0.00341796875,0.9949951171875,[0. 0. 0. 0. 0. 0. 0. 0. 0.],0.009765625,0.001953125,0.009765625,[0. 0. 0. 0. 0. 0. 0. 0. 0.],-1.9140625,-0.3828125,9.61328125,[0. 0. 0. 0. 0. 0. 0. 0. 0.]
1742656847269655759,1742656847,260866409,imu_link,-0.017578125,0.0985107421875,-0.00341796875,0.9949951171875,[0. 0. 0. 0. 0. 0. 0. 0. 0.],0.001953125,0.00390625,0.009765625,[0. 0. 0. 0. 0. 0. 0. 0. 0.],-1.9140625,-0.34375,9.5390625,[0. 0. 0. 0. 0. 0. 0. 0. 0.]
1742656847286987850,1742656847,272098696,imu_link,-0.017578125,0.0986328125,-0.00323486328125,0.99493408203125,[0. 0. 0. 0. 0. 0. 0. 0. 0.],0.001953125,0.00390625,0.009765625,[0. 0. 0. 0. 0. 0. 0. 0. 0.],-1.953125,-0.26953125,9.61328125,[0. 0. 0. 0. 0. 0. 0. 0. 0.]
1742656847295438000,1742656847,292012278,imu_link,-0.017578125,0.0986328125,-0.00323486328125,0.99493408203125,[0. 0. 0. 0. 0. 0. 0. 0. 0.],0.001953125,0.00390625,0.009765625,[0. 0. 0. 0. 0. 0. 0. 0. 0.],-1.953125,-0.26953125,9.61328125,[0. 0. 0. 0. 0. 0. 0. 0. 0.]
1742656847334384673,1742656847,312674092,imu_link,-0.017578125,0.09881591796875,-0.00323486328125,0.99493408203125,[0. 0. 0. 0. 0. 0. 0. 0. 0.],0.0,0.001953125,-0.001953125,[0. 0. 0. 0. 0. 0. 0. 0. 0.],-1.953125,-0.26953125,9.61328125,[0. 0. 0. 0. 0. 0. 0. 0. 0.]
1742656847345169817,1742656847,338220225,imu_link,-0.017578125,0.09881591796875,-0.00323486328125,0.99493408203125,[0. 0. 0. 0. 0. 0. 0. 0. 0.],0.0,0.001953125,-0.001953125,[0. 0. 0. 0. 0. 0. 0. 0. 0.],-1.9140625,-0.34375,9.4609375,[0. 0. 0. 0. 0. 0. 0. 0. 0.]
1742656847361171848,1742656847,353275618,imu_link,-0.017578125,0.09881591796875,-0.00323486328125,0.99493408203125,[0. 0. 0. 0. 0. 0. 0. 0. 0.],-0.001953125,0.001953125,0.001953125,[0. 0. 0. 0. 0. 0. 0. 0. 0.],-1.9140625,-0.34375,9.4609375,[0. 0. 0. 0. 0. 0. 0. 0. 0.]
1742656847388157909,1742656847,373971618,imu_link,-0.017578125,0.09893798828125,-0.00323486328125,0.99493408203125,[0. 0. 0. 0. 0. 0. 0. 0. 0.],-0.001953125,0.001953125,0.001953125,[0. 0. 0. 0. 0. 0. 0. 0. 0.],-1.83984375,-0.34375,9.58203125,[0. 0. 0. 0. 0. 0. 0. 0. 0.]
1742656847395781179,1742656847,392185959,imu_link,-0.017578125,0.09893798828125,-0.00323486328125,0.99493408203125,[0. 0. 0. 0. 0. 0. 0. 0. 0.],-0.001953125,0.001953125,0.001953125,[0. 0. 0. 0. 0. 0. 0. 0. 0.],-1.83984375,-0.34375,9.58203125,[0. 0. 0. 0. 0. 0. 0. 0. 0.]
1742656847443420574,1742656847,416333940,imu_link,-0.01751708984375,0.0989990234375,-0.003173828125,0.99493408203125,[0. 0. 0. 0. 0. 0. 0. 0. 0.],0.001953125,0.00390625,0.00390625,[0. 0. 0. 0. 0. 0. 0. 0. 0.],-1.953125,-0.34375,9.5390625,[0. 0. 0. 0. 0. 0. 0. 0. 0.]
1742656847459071091,1742656847,448464501,imu_link,-0.01751708984375,0.0989990234375,-0.003173828125,0.99493408203125,[0. 0. 0. 0. 0. 0. 0. 0. 0.],-0.001953125,0.001953125,0.0,[0. 0. 0. 0. 0. 0. 0. 0. 0.],-1.953125,-0.34375,9.5390625,[0. 0. 0. 0. 0. 0. 0. 0. 0.]
1742656847469814253,1742656847,460737091,imu_link,-0.01751708984375,0.0989990234375,-0.003173828125,0.99493408203125,[0. 0. 0. 0. 0. 0. 0. 0. 0.],-0.001953125,0.001953125,0.0,[0. 0. 0. 0. 0. 0. 0. 0. 0.],-1.953125,-0.34375,9.5390625,[0. 0. 0. 0. 0. 0. 0. 0. 0.]
1742656847488578032,1742656847,485202328,imu_link,-0.01751708984375,0.09912109375,-0.003173828125,0.99493408203125,[0. 0. 0. 0. 0. 0. 0. 0. 0.],-0.001953125,0.001953125,0.0,[0. 0. 0. 0. 0. 0. 0. 0. 0.],-1.9140625,-0.3828125,9.61328125,[0. 0. 0. 0. 0. 0. 0. 0. 0.]
1742656847499889429,1742656847,492244956,imu_link,-0.01751708984375,0.09912109375,-0.003173828125,0.99493408203125,[0. 0. 0. 0. 0. 0. 0. 0. 0.],-0.001953125,0.001953125,0.0,[0. 0. 0. 0. 0. 0. 0. 0. 0.],-1.9140625,-0.3828125,9.61328125,[0. 0. 0. 0. 0. 0. 0. 0. 0.]
1742656847515816906,1742656847,512159556,imu_link,-0.01751708984375,0.09912109375,-0.003173828125,0.99493408203125,[0. 0. 0. 0. 0. 0. 0. 0. 0.],-0.005859375,0.001953125,0.001953125,[0. 0. 0. 0. 0. 0. 0. 0. 0.],-1.9140625,-0.3046875,9.58203125,[0. 0. 0. 0. 0. 0. 0. 0. 0.]
1742656847561764245,1742656847,532307654,imu_link,-0.017578125,0.0992431640625,-0.00311279296875,0.99493408203125,[0. 0. 0. 0. 0. 0. 0. 0. 0.],-0.005859375,0.001953125,0.001953125,[0. 0. 0. 0. 0. 0. 0. 0. 0.],-1.953125,-0.23046875,9.50390625,[0. 0. 0. 0. 0. 0. 0. 0. 0.]
1742656847590192957,1742656847,568784688,imu_link,-0.01763916015625,0.09930419921875,-0.00323486328125,0.994873046875,[0. 0. 0. 0. 0. 0. 0. 0. 0.],-0.005859375,-0.001953125,-0.00390625,[0. 0. 0. 0. 0. 0. 0. 0. 0.],-1.87890625,-0.3046875,9.61328125,[0. 0. 0. 0. 0. 0. 0. 0. 0.]
1742656847611180620,1742656847,607136108,imu_link,-0.01763916015625,0.09930419921875,-0.00323486328125,0.994873046875,[0. 0. 0. 0. 0. 0. 0. 0. 0.],-0.009765625,0.001953125,-0.005859375,[0. 0. 0. 0. 0. 0. 0. 0. 0.],-1.953125,-0.34375,9.61328125,[0. 0. 0. 0. 0. 0. 0. 0. 0.]
1742656847618309580,1742656847,614680119,imu_link,-0.01763916015625,0.09930419921875,-0.00323486328125,0.994873046875,[0. 0. 0. 0. 0. 0. 0. 0. 0.],-0.009765625,0.001953125,-0.005859375,[0. 0. 0. 0. 0. 0. 0. 0. 0.],-1.953125,-0.34375,9.61328125,[0. 0. 0. 0. 0. 0. 0. 0. 0.]
1742656847637240191,1742656847,632933867,imu_link,-0.01763916015625,0.09942626953125,-0.00335693359375,0.994873046875,[0. 0. 0. 0. 0. 0. 0. 0. 0.],-0.009765625,0.001953125,-0.005859375,[0. 0. 0. 0. 0. 0. 0. 0. 0.],-2.0703125,-0.3046875,9.5,[0. 0. 0. 0. 0. 0. 0. 0. 0.]
1742656847664817413,1742656847,652963263,imu_link,-0.01763916015625,0.09942626953125,-0.00335693359375,0.994873046875,[0. 0. 0. 0. 0. 0. 0. 0. 0.],-0.0078125,0.001953125,0.0,[0. 0. 0. 0. 0. 0. 0. 0. 0.],-1.87890625,-0.4609375,9.609375,[0. 0. 0. 0. 0. 0. 0. 0. 0.]
1742656847701131726,1742656847,673053102,imu_link,-0.01763916015625,0.09954833984375,-0.00335693359375,0.994873046875,[0. 0. 0. 0. 0. 0. 0. 0. 0.],-0.0078125,0.001953125,0.0,[0. 0. 0. 0. 0. 0. 0. 0. 0.],-1.9140625,-0.421875,9.50390625,[0. 0. 0. 0. 0. 0. 0. 0. 0.]
1742656847711386579,1742656847,708786051,imu_link,-0.01763916015625,0.09954833984375,-0.00335693359375,0.994873046875,[0. 0. 0. 0. 0. 0. 0. 0. 0.],-0.01171875,0.0,0.0078125,[0. 0. 0. 0. 0. 0. 0. 0. 0.],-1.9140625,-0.421875,9.50390625,[0. 0. 0. 0. 0. 0. 0. 0. 0.]
1742656847732241613,1742656847,718270653,imu_link,-0.017578125,0.09967041015625,-0.003173828125,0.994873046875,[0. 0. 0. 0. 0. 0. 0. 0. 0.],-0.01171875,0.0,0.0078125,[0. 0. 0. 0. 0. 0. 0. 0. 0.],-1.953125,-0.26953125,9.578125,[0. 0. 0. 0. 0. 0. 0. 0. 0.]
1742656847738200697,1742656847,736041961,imu_link,-0.017578125,0.09967041015625,-0.003173828125,0.994873046875,[0. 0. 0. 0. 0. 0. 0. 0. 0.],-0.01171875,0.0,0.0078125,[0. 0. 0. 0. 0. 0. 0. 0. 0.],-1.953125,-0.26953125,9.578125,[0. 0. 0. 0. 0. 0. 0. 0. 0.]
1742656847767428512,1742656847,752260250,imu_link,-0.017578125,0.09967041015625,-0.003173828125,0.994873046875,[0. 0. 0. 0. 0. 0. 0. 0. 0.],-0.005859375,-0.001953125,-0.0078125,[0. 0. 0. 0. 0. 0. 0. 0. 0.],-1.9921875,-0.3046875,9.6484375,[0. 0. 0. 0. 0. 0. 0. 0. 0.]
1742656847793265994,1742656847,788714728,imu_link,-0.01763916015625,0.0997314453125,-0.0032958984375,0.994873046875,[0. 0. 0. 0. 0. 0. 0. 0. 0.],-0.005859375,-0.001953125,-0.0078125,[0. 0. 0. 0. 0. 0. 0. 0. 0.],-1.9921875,-0.34375,9.5390625,[0. 0. 0. 0. 0. 0. 0. 0. 0.]
1742656847806329538,1742656847,798235718,imu_link,-0.01763916015625,0.0997314453125,-0.0032958984375,0.994873046875,[0. 0. 0. 0. 0. 0. 0. 0. 0.],-0.013671875,0.001953125,-0.00390625,[0. 0. 0. 0. 0. 0. 0. 0. 0.],-1.9921875,-0.34375,9.5390625,[0. 0. 0. 0. 0. 0. 0. 0. 0.]
1742656847832027373,1742656847,812389603,imu_link,-0.0177001953125,0.099853515625,-0.0032958984375,0.99481201171875,[0. 0. 0. 0. 0. 0. 0. 0. 0.],-0.013671875,0.001953125,-0.00390625,[0. 0. 0. 0. 0. 0. 0. 0. 0.],-2.03125,-0.26953125,9.578125,[0. 0. 0. 0. 0. 0. 0. 0. 0.]
1742656847838546673,1742656847,834981563,imu_link,-0.0177001953125,0.099853515625,-0.0032958984375,0.99481201171875,[0. 0. 0. 0. 0. 0. 0. 0. 0.],-0.013671875,0.001953125,-0.00390625,[0. 0. 0. 0. 0. 0. 0. 0. 0.],-2.03125,-0.26953125,9.578125,[0. 0. 0. 0. 0. 0. 0. 0. 0.]
1742656847865050184,1742656847,852103731,imu_link,-0.0177001953125,0.099853515625,-0.0032958984375,0.99481201171875,[0. 0. 0. 0. 0. 0. 0. 0. 0.],-0.009765625,0.00390625,-0.001953125,[0. 0. 0. 0. 0. 0. 0. 0. 0.],-1.953125,-0.3828125,9.578125,[0. 0. 0. 0. 0. 0. 0. 0. 0.]
1742656847888668152,1742656847,872019665,imu_link,-0.0177001953125,0.0999755859375,-0.00335693359375,0.99481201171875,[0. 0. 0. 0. 0. 0. 0. 0. 0.],-0.009765625,0.00390625,-0.001953125,[0. 0. 0. 0. 0. 0. 0. 0. 0.],-1.83984375,-0.49609375,9.54296875,[0. 0. 0. 0. 0. 0. 0. 0. 0.]
1742656847897199708,1742656847,892050079,imu_link,-0.0177001953125,0.0999755859375,-0.00335693359375,0.99481201171875,[0. 0. 0. 0. 0. 0. 0. 0. 0.],-0.009765625,0.00390625,-0.001953125,[0. 0. 0. 0. 0. 0. 0. 0. 0.],-1.83984375,-0.49609375,9.54296875,[0. 0. 0. 0. 0. 0. 0. 0. 0.]
1742656847935764053,1742656847,912397415,imu_link,-0.0177001953125,0.10009765625,-0.003173828125,0.99481201171875,[0. 0. 0. 0. 0. 0. 0. 0. 0.],-0.009765625,0.00390625,0.013671875,[0. 0. 0. 0. 0. 0. 0. 0. 0.],-1.87890625,-0.3828125,9.58203125,[0. 0. 0. 0. 0. 0. 0. 0. 0.]
1742656847952002248,1742656847,939592622,imu_link,-0.0177001953125,0.10009765625,-0.003173828125,0.99481201171875,[0. 0. 0. 0. 0. 0. 0. 0. 0.],-0.009765625,0.00390625,0.013671875,[0. 0. 0. 0. 0. 0. 0. 0. 0.],-1.9921875,-0.23046875,9.609375,[0. 0. 0. 0. 0. 0. 0. 0. 0.]
1742656847967129567,1742656847,961100558,imu_link,-0.0177001953125,0.10009765625,-0.003173828125,0.99481201171875,[0. 0. 0. 0. 0. 0. 0. 0. 0.],-0.0078125,0.00390625,-0.0078125,[0. 0. 0. 0. 0. 0. 0. 0. 0.],-1.9921875,-0.23046875,9.609375,[0. 0. 0. 0. 0. 0. 0. 0. 0.]
1742656847991451712,1742656847,984036014,imu_link,-0.01776123046875,0.10028076171875,-0.0032958984375,0.99481201171875,[0. 0. 0. 0. 0. 0. 0. 0. 0.],-0.0078125,0.00390625,-0.0078125,[0. 0. 0. 0. 0. 0. 0. 0. 0.],-1.953125,-0.26953125,9.5,[0. 0. 0. 0. 0. 0. 0. 0. 0.]
1742656847997410741,1742656847,995019322,imu_link,-0.01776123046875,0.10028076171875,-0.0032958984375,0.99481201171875,[0. 0. 0. 0. 0. 0. 0. 0. 0.],-0.0078125,0.00390625,-0.0078125,[0. 0. 0. 0. 0. 0. 0. 0. 0.],-1.953125,-0.26953125,9.5,[0. 0. 0. 0. 0. 0. 0. 0. 0.]
1742656848016053097,1742656848,12514746,imu_link,-0.01776123046875,0.10028076171875,-0.0032958984375,0.99481201171875,[0. 0. 0. 0. 0. 0. 0. 0. 0.],-0.005859375,0.001953125,-0.001953125,[0. 0. 0. 0. 0. 0. 0. 0. 0.],-1.9140625,-0.34375,9.578125,[0. 0. 0. 0. 0. 0. 0. 0. 0.]
1742656848046832082,1742656848,32163850,imu_link,-0.017822265625,0.10040283203125,-0.00335693359375,0.99481201171875,[0. 0. 0. 0. 0. 0. 0. 0. 0.],-0.005859375,0.001953125,-0.001953125,[0. 0. 0. 0. 0. 0. 0. 0. 0.],-2.03125,-0.34375,9.578125,[0. 0. 0. 0. 0. 0. 0. 0. 0.]
1742656848057087491,1742656848,52853759,imu_link,-0.017822265625,0.10040283203125,-0.00335693359375,0.99481201171875,[0. 0. 0. 0. 0. 0. 0. 0. 0.],-0.005859375,0.005859375,-0.0078125,[0. 0. 0. 0. 0. 0. 0. 0. 0.],-2.03125,-0.34375,9.578125,[0. 0. 0. 0. 0. 0. 0. 0. 0.]
1742656848086559751,1742656848,72429698,imu_link,-0.017822265625,0.1004638671875,-0.0035400390625,0.9947509765625,[0. 0. 0. 0. 0. 0. 0. 0. 0.],-0.005859375,0.005859375,-0.0078125,[0. 0. 0. 0. 0. 0. 0. 0. 0.],-2.03125,-0.3828125,9.5,[0. 0. 0. 0. 0. 0. 0. 0. 0.]
1742656848095355879,1742656848,92137006,imu_link,-0.017822265625,0.1004638671875,-0.0035400390625,0.9947509765625,[0. 0. 0. 0. 0. 0. 0. 0. 0.],-0.005859375,0.005859375,-0.0078125,[0. 0. 0. 0. 0. 0. 0. 0. 0.],-2.03125,-0.3828125,9.5,[0. 0. 0. 0. 0. 0. 0. 0. 0.]
1742656848118999126,1742656848,113116282,imu_link,-0.017822265625,0.1004638671875,-0.0035400390625,0.9947509765625,[0. 0. 0. 0. 0. 0. 0. 0. 0.],-0.009765625,0.005859375,0.0078125,[0. 0. 0. 0. 0. 0. 0. 0. 0.],-1.9140625,-0.421875,9.609375,[0. 0. 0. 0. 0. 0. 0. 0. 0.]
1742656848145345141,1742656848,139649609,imu_link,-0.01776123046875,0.10064697265625,-0.00341796875,0.9947509765625,[0. 0. 0. 0. 0. 0. 0. 0. 0.],-0.009765625,0.005859375,0.0078125,[0. 0. 0. 0. 0. 0. 0. 0. 0.],-1.9140625,-0.3828125,9.578125,[0. 0. 0. 0. 0. 0. 0. 0. 0.]
1742656848160094280,1742656848,152530897,imu_link,-0.01776123046875,0.10064697265625,-0.00341796875,0.9947509765625,[0. 0. 0. 0. 0. 0. 0. 0. 0.],-0.01171875,0.005859375,0.00390625,[0. 0. 0. 0. 0. 0. 0. 0. 0.],-1.9140625,-0.3828125,9.578125,[0. 0. 0. 0. 0. 0. 0. 0. 0.]
1742656848196149839,1742656848,184350817,imu_link,-0.017822265625,0.10076904296875,-0.0032958984375,0.9947509765625,[0. 0. 0. 0. 0. 0. 0. 0. 0.],-0.01171875,0.005859375,0.00390625,[0. 0. 0. 0. 0. 0. 0. 0. 0.],-1.87890625,-0.3046875,9.4609375,[0. 0. 0. 0. 0. 0. 0. 0. 0.]
1742656848205512276,1742656848,198107207,imu_link,-0.017822265625,0.10076904296875,-0.0032958984375,0.9947509765625,[0. 0. 0. 0. 0. 0. 0. 0. 0.],-0.01171875,0.00390625,-0.0078125,[0. 0. 0. 0. 0. 0. 0. 0. 0.],-1.83984375,-0.3046875,9.578125,[0. 0. 0. 0. 0. 0. 0. 0. 0.]
1742656848216031386,1742656848,212059298,imu_link,-0.017822265625,0.10076904296875,-0.0032958984375,0.9947509765625,[0. 0. 0. 0. 0. 0. 0. 0. 0.],-0.01171875,0.00390625,-0.0078125,[0. 0. 0. 0. 0. 0. 0. 0. 0.],-1.83984375,-0.3046875,9.578125,[0. 0. 0. 0. 0. 0. 0. 0. 0.]
1742656848260370245,1742656848,232109806,imu_link,-0.0179443359375,0.100830078125,-0.00341796875,0.9947509765625,[0. 0. 0. 0. 0. 0. 0. 0. 0.],-0.01171875,0.00390625,-0.0078125,[0. 0. 0. 0. 0. 0. 0. 0. 0.],-1.87890625,-0.3828125,9.54296875,[0. 0. 0. 0. 0. 0. 0. 0. 0.]
1742656848269991161,1742656848,265032158,imu_link,-0.0179443359375,0.100830078125,-0.00341796875,0.9947509765625,[0. 0. 0. 0. 0. 0. 0. 0. 0.],0.0,0.0078125,0.001953125,[0. 0. 0. 0. 0. 0. 0. 0. 0.],-2.0703125,-0.34375,9.58203125,[0. 0. 0. 0. 0. 0. 0. 0. 0.]
1742656848292930730,1742656848,282990189,imu_link,-0.0179443359375,0.1009521484375,-0.00335693359375,0.9947509765625,[0. 0. 0. 0. 0. 0. 0. 0. 0.],0.0,0.0078125,0.001953125,[0. 0. 0. 0. 0. 0. 0. 0. 0.],-2.0703125,-0.34375,9.58203125,[0. 0. 0. 0. 0. 0. 0. 0. 0.]
1742656848304441867,1742656848,296690894,imu_link,-0.0179443359375,0.1009521484375,-0.00335693359375,0.9947509765625,[0. 0. 0. 0. 0. 0. 0. 0. 0.],0.00390625,-0.001953125,0.0,[0. 0. 0. 0. 0. 0. 0. 0. 0.],-2.18359375,-0.34375,9.5390625,[0. 0. 0. 0. 0. 0. 0. 0. 0.]
1742656848318052629,1742656848,313506474,imu_link,-0.0179443359375,0.1009521484375,-0.00335693359375,0.9947509765625,[0. 0. 0. 0. 0. 0. 0. 0. 0.],0.00390625,-0.001953125,0.0,[0. 0. 0. 0. 0. 0. 0. 0. 0.],-2.18359375,-0.34375,9.5390625,[0. 0. 0. 0. 0. 0. 0. 0. 0.]
1742656848337668530,1742656848,332422716,imu_link,-0.01788330078125,0.10089111328125,-0.00341796875,0.9947509765625,[0. 0. 0. 0. 0. 0. 0. 0. 0.],0.00390625,-0.001953125,0.0,[0. 0. 0. 0. 0. 0. 0. 0. 0.],-2.03125,-0.4609375,9.5390625,[0. 0. 0. 0. 0. 0. 0. 0. 0.]
1742656848363901509,1742656848,352368632,imu_link,-0.01788330078125,0.10089111328125,-0.00341796875,0.9947509765625,[0. 0. 0. 0. 0. 0. 0. 0. 0.],0.0078125,-0.001953125,0.01171875,[0. 0. 0. 0. 0. 0. 0. 0. 0.],-1.9921875,-0.3828125,9.578125,[0. 0. 0. 0. 0. 0. 0. 0. 0.]
1742656848389253146,1742656848,373536776,imu_link,-0.01776123046875,0.10089111328125,-0.00311279296875,0.9947509765625,[0. 0. 0. 0. 0. 0. 0. 0. 0.],0.0078125,-0.001953125,0.01171875,[0. 0. 0. 0. 0. 0. 0. 0. 0.],-1.87890625,-0.34375,9.58203125,[0. 0. 0. 0. 0. 0. 0. 0. 0.]
1742656848396064184,1742656848,392046449,imu_link,-0.01776123046875,0.10089111328125,-0.00311279296875,0.9947509765625,[0. 0. 0. 0. 0. 0. 0. 0. 0.],0.0078125,-0.001953125,0.01171875,[0. 0. 0. 0. 0. 0. 0. 0. 0.],-1.87890625,-0.34375,9.58203125,[0. 0. 0. 0. 0. 0. 0. 0. 0.]
1742656848433736726,1742656848,416179802,imu_link,-0.01776123046875,0.10089111328125,-0.00299072265625,0.9947509765625,[0. 0. 0. 0. 0. 0. 0. 0. 0.],0.009765625,0.001953125,0.00390625,[0. 0. 0. 0. 0. 0. 0. 0. 0.],-1.83984375,-0.34375,9.609375,[0. 0. 0. 0. 0. 0. 0. 0. 0.]
1742656848440118232,1742656848,436910803,imu_link,-0.01776123046875,0.10089111328125,-0.00299072265625,0.9947509765625,[0. 0. 0. 0. 0. 0. 0. 0. 0.],0.009765625,0.001953125,0.00390625,[0. 0. 0. 0. 0. 0. 0. 0. 0.],-1.83984375,-0.34375,9.609375,[0. 0. 0. 0. 0. 0. 0. 0. 0.]
1742656848458362777,1742656848,452214510,imu_link,-0.01776123046875,0.10089111328125,-0.00299072265625,0.9947509765625,[0. 0. 0. 0. 0. 0. 0. 0. 0.],0.001953125,0.00390625,0.001953125,[0. 0. 0. 0. 0. 0. 0. 0. 0.],-1.80078125,-0.3046875,9.54296875,[0. 0. 0. 0. 0. 0. 0. 0. 0.]
1742656848488342605,1742656848,472109593,imu_link,-0.01788330078125,0.1009521484375,-0.0029296875,0.9947509765625,[0. 0. 0. 0. 0. 0. 0. 0. 0.],0.001953125,0.00390625,0.001953125,[0. 0. 0. 0. 0. 0. 0. 0. 0.],-1.87890625,-0.34375,9.609375,[0. 0. 0. 0. 0. 0. 0. 0. 0.]
1742656848499444246,1742656848,492173564,imu_link,-0.01788330078125,0.1009521484375,-0.0029296875,0.9947509765625,[0. 0. 0. 0. 0. 0. 0. 0. 0.],0.001953125,0.00390625,0.001953125,[0. 0. 0. 0. 0. 0. 0. 0. 0.],-1.87890625,-0.34375,9.609375,[0. 0. 0. 0. 0. 0. 0. 0. 0.]
1742656848538268849,1742656848,512349126,imu_link,-0.01800537109375,0.1009521484375,-0.00286865234375,0.9947509765625,[0. 0. 0. 0. 0. 0. 0. 0. 0.],0.001953125,0.005859375,0.0,[0. 0. 0. 0. 0. 0. 0. 0. 0.],-2.03125,-0.34375,9.578125,[0. 0. 0. 0. 0. 0. 0. 0. 0.]
1742656848552366551,1742656848,545509402,imu_link,-0.01800537109375,0.1009521484375,-0.00286865234375,0.9947509765625,[0. 0. 0. 0. 0. 0. 0. 0. 0.],0.001953125,0.005859375,0.0,[0. 0. 0. 0. 0. 0. 0. 0. 0.],-2.0703125,-0.3828125,9.54296875,[0. 0. 0. 0. 0. 0. 0. 0. 0.]
1742656848559466586,1742656848,555865402,imu_link,-0.01800537109375,0.1009521484375,-0.00286865234375,0.9947509765625,[0. 0. 0. 0. 0. 0. 0. 0. 0.],0.001953125,0.00390625,0.001953125,[0. 0. 0. 0. 0. 0. 0. 0. 0.],-2.0703125,-0.3828125,9.54296875,[0. 0. 0. 0. 0. 0. 0. 0. 0.]
1742656848587317325,1742656848,572432966,imu_link,-0.01806640625,0.10101318359375,-0.00286865234375,0.99468994140625,[0. 0. 0. 0. 0. 0. 0. 0. 0.],0.001953125,0.00390625,0.001953125,[0. 0. 0. 0. 0. 0. 0. 0. 0.],-1.9921875,-0.421875,9.58203125,[0. 0. 0. 0. 0. 0. 0. 0. 0.]
1742656848610261062,1742656848,594487008,imu_link,-0.01806640625,0.10101318359375,-0.00286865234375,0.99468994140625,[0. 0. 0. 0. 0. 0. 0. 0. 0.],0.001953125,0.00390625,0.001953125,[0. 0. 0. 0. 0. 0. 0. 0. 0.],-1.9921875,-0.421875,9.58203125,[0. 0. 0. 0. 0. 0. 0. 0. 0.]
1742656848645142170,1742656848,615340730,imu_link,-0.01806640625,0.10101318359375,-0.002685546875,0.99468994140625,[0. 0. 0. 0. 0. 0. 0. 0. 0.],0.0,0.00390625,0.005859375,[0. 0. 0. 0. 0. 0. 0. 0. 0.],-2.0703125,-0.26953125,9.54296875,[0. 0. 0. 0. 0. 0. 0. 0. 0.]
1742656848659324130,1742656848,647172352,imu_link,-0.01806640625,0.10101318359375,-0.002685546875,0.99468994140625,[0. 0. 0. 0. 0. 0. 0. 0. 0.],0.001953125,0.0,-0.00390625,[0. 0. 0. 0. 0. 0. 0. 0. 0.],-1.9921875,-0.3046875,9.54296875,[0. 0. 0. 0. 0. 0. 0. 0. 0.]
1742656848681129582,1742656848,664051690,imu_link,-0.0181884765625,0.10101318359375,-0.00274658203125,0.99468994140625,[0. 0. 0. 0. 0. 0. 0. 0. 0.],0.001953125,0.0,-0.00390625,[0. 0. 0. 0. 0. 0. 0. 0. 0.],-1.87890625,-0.3828125,9.58203125,[0. 0. 0. 0. 0. 0. 0. 0. 0.]
1742656848685762181,1742656848,683730258,imu_link,-0.0181884765625,0.10101318359375,-0.00274658203125,0.99468994140625,[0. 0. 0. 0. 0. 0. 0. 0. 0.],0.001953125,0.0,-0.00390625,[0. 0. 0. 0. 0. 0. 0. 0. 0.],-1.87890625,-0.3828125,9.58203125,[0. 0. 0. 0. 0. 0. 0. 0. 0.]
1742656848694840621,1742656848,692028595,imu_link,-0.0181884765625,0.10101318359375,-0.00274658203125,0.99468994140625,[0. 0. 0. 0. 0. 0. 0. 0. 0.],0.001953125,0.0,-0.00390625,[0. 0. 0. 0. 0. 0. 0. 0. 0.],-1.87890625,-0.3828125,9.58203125,[0. 0. 0. 0. 0. 0. 0. 0. 0.]
1742656848715029664,1742656848,712712189,imu_link,-0.0181884765625,0.10101318359375,-0.00274658203125,0.99468994140625,[0. 0. 0. 0. 0. 0. 0. 0. 0.],0.001953125,0.001953125,0.005859375,[0. 0. 0. 0. 0. 0. 0. 0. 0.],-1.9140625,-0.421875,9.58203125,[0. 0. 0. 0. 0. 0. 0. 0. 0.]
1742656848746956971,1742656848,732362461,imu_link,-0.01812744140625,0.10113525390625,-0.00262451171875,0.99468994140625,[0. 0. 0. 0. 0. 0. 0. 0. 0.],0.001953125,0.001953125,0.005859375,[0. 0. 0. 0. 0. 0. 0. 0. 0.],-1.9921875,-0.34375,9.5390625,[0. 0. 0. 0. 0. 0. 0. 0. 0.]
1742656848765463218,1742656848,757660635,imu_link,-0.01812744140625,0.10113525390625,-0.00262451171875,0.99468994140625,[0. 0. 0. 0. 0. 0. 0. 0. 0.],0.0,0.00390625,0.0,[0. 0. 0. 0. 0. 0. 0. 0. 0.],-1.9921875,-0.34375,9.61328125,[0. 0. 0. 0. 0. 0. 0. 0. 0.]
1742656848784589810,1742656848,780269671,imu_link,-0.0181884765625,0.1011962890625,-0.00262451171875,0.99468994140625,[0. 0. 0. 0. 0. 0. 0. 0. 0.],0.0,0.00390625,0.0,[0. 0. 0. 0. 0. 0. 0. 0. 0.],-1.9921875,-0.34375,9.61328125,[0. 0. 0. 0. 0. 0. 0. 0. 0.]
1742656848803436275,1742656848,792180655,imu_link,-0.0181884765625,0.1011962890625,-0.00262451171875,0.99468994140625,[0. 0. 0. 0. 0. 0. 0. 0. 0.],-0.001953125,0.0,0.009765625,[0. 0. 0. 0. 0. 0. 0. 0. 0.],-1.9921875,-0.34375,9.5390625,[0. 0. 0. 0. 0. 0. 0. 0. 0.]
1742656848818311801,1742656848,813077894,imu_link,-0.0181884765625,0.1011962890625,-0.00262451171875,0.99468994140625,[0. 0. 0. 0. 0. 0. 0. 0. 0.],-0.001953125,0.0,0.009765625,[0. 0. 0. 0. 0. 0. 0. 0. 0.],-1.9921875,-0.34375,9.5390625,[0. 0. 0. 0. 0. 0. 0. 0. 0.]
1742656848837100582,1742656848,833008755,imu_link,-0.01824951171875,0.10125732421875,-0.00244140625,0.99468994140625,[0. 0. 0. 0. 0. 0. 0. 0. 0.],-0.001953125,0.0,0.009765625,[0. 0. 0. 0. 0. 0. 0. 0. 0.],-1.9921875,-0.3046875,9.54296875,[0. 0. 0. 0. 0. 0. 0. 0. 0.]
1742656848884039321,1742656848,852571657,imu_link,-0.01837158203125,0.10125732421875,-0.00244140625,0.99468994140625,[0. 0. 0. 0. 0. 0. 0. 0. 0.],-0.00390625,-0.00390625,-0.001953125,[0. 0. 0. 0. 0. 0. 0. 0. 0.],-1.953125,-0.3828125,9.61328125,[0. 0. 0. 0. 0. 0. 0. 0. 0.]
1742656848894360378,1742656848,889915092,imu_link,-0.01837158203125,0.10125732421875,-0.00244140625,0.99468994140625,[0. 0. 0. 0. 0. 0. 0. 0. 0.],-0.00390625,-0.00390625,-0.001953125,[0. 0. 0. 0. 0. 0. 0. 0. 0.],-2.03125,-0.34375,9.578125,[0. 0. 0. 0. 0. 0. 0. 0. 0.]
1742656848908754946,1742656848,896619224,imu_link,-0.01837158203125,0.10125732421875,-0.00244140625,0.99468994140625,[0. 0. 0. 0. 0. 0. 0. 0. 0.],-0.00390625,-0.001953125,-0.001953125,[0. 0. 0. 0. 0. 0. 0. 0. 0.],-2.03125,-0.34375,9.578125,[0. 0. 0. 0. 0. 0. 0. 0. 0.]
1742656848916272217,1742656848,911966763,imu_link,-0.01837158203125,0.10125732421875,-0.00244140625,0.99468994140625,[0. 0. 0. 0. 0. 0. 0. 0. 0.],-0.00390625,-0.001953125,-0.001953125,[0. 0. 0. 0. 0. 0. 0. 0. 0.],-2.03125,-0.34375,9.578125,[0. 0. 0. 0. 0. 0. 0. 0. 0.]
1742656848941947480,1742656848,932100789,imu_link,-0.01837158203125,0.10125732421875,-0.00244140625,0.99468994140625,[0. 0. 0. 0. 0. 0. 0. 0. 0.],-0.00390625,-0.001953125,-0.001953125,[0. 0. 0. 0. 0. 0. 0. 0. 0.],-1.953125,-0.421875,9.50390625,[0. 0. 0. 0. 0. 0. 0. 0. 0.]
1742656848986694872,1742656848,954129146,imu_link,-0.01837158203125,0.1011962890625,-0.0023193359375,0.99468994140625,[0. 0. 0. 0. 0. 0. 0. 0. 0.],-0.001953125,-0.00390625,0.0078125,[0. 0. 0. 0. 0. 0. 0. 0. 0.],-1.953125,-0.3828125,9.578125,[0. 0. 0. 0. 0. 0. 0. 0. 0.]
1742656848994557048,1742656848,990588664,imu_link,-0.01837158203125,0.1011962890625,-0.0023193359375,0.99468994140625,[0. 0. 0. 0. 0. 0. 0. 0. 0.],-0.001953125,-0.00390625,0.0078125,[0. 0. 0. 0. 0. 0. 0. 0. 0.],-1.953125,-0.34375,9.5390625,[0. 0. 0. 0. 0. 0. 0. 0. 0.]
1742656849004794957,1742656848,996287196,imu_link,-0.01837158203125,0.1011962890625,-0.0023193359375,0.99468994140625,[0. 0. 0. 0. 0. 0. 0. 0. 0.],-0.009765625,-0.00390625,0.005859375,[0. 0. 0. 0. 0. 0. 0. 0. 0.],-1.953125,-0.34375,9.5390625,[0. 0. 0. 0. 0. 0. 0. 0. 0.]
1742656849029251364,1742656849,12014843,imu_link,-0.018310546875,0.1011962890625,-0.00225830078125,0.99468994140625,[0. 0. 0. 0. 0. 0. 0. 0. 0.],-0.009765625,-0.00390625,0.005859375,[0. 0. 0. 0. 0. 0. 0. 0. 0.],-1.9140625,-0.421875,9.58203125,[0. 0. 0. 0. 0. 0. 0. 0. 0.]
1742656849034286866,1742656849,32053427,imu_link,-0.018310546875,0.1011962890625,-0.00225830078125,0.99468994140625,[0. 0. 0. 0. 0. 0. 0. 0. 0.],-0.009765625,-0.00390625,0.005859375,[0. 0. 0. 0. 0. 0. 0. 0. 0.],-1.9140625,-0.421875,9.58203125,[0. 0. 0. 0. 0. 0. 0. 0. 0.]
1742656849064309288,1742656849,52202528,imu_link,-0.018310546875,0.1011962890625,-0.00225830078125,0.99468994140625,[0. 0. 0. 0. 0. 0. 0. 0. 0.],-0.0078125,0.0,0.0078125,[0. 0. 0. 0. 0. 0. 0. 0. 0.],-2.03125,-0.34375,9.65234375,[0. 0. 0. 0. 0. 0. 0. 0. 0.]
1742656849085562803,1742656849,72221371,imu_link,-0.01824951171875,0.10125732421875,-0.00201416015625,0.99468994140625,[0. 0. 0. 0. 0. 0. 0. 0. 0.],-0.0078125,0.0,0.0078125,[0. 0. 0. 0. 0. 0. 0. 0. 0.],-2.03125,-0.34375,9.5,[0. 0. 0. 0. 0. 0. 0. 0. 0.]
1742656849103078580,1742656849,95129906,imu_link,-0.01824951171875,0.10125732421875,-0.00201416015625,0.99468994140625,[0. 0. 0. 0. 0. 0. 0. 0. 0.],-0.00390625,-0.001953125,0.0,[0. 0. 0. 0. 0. 0. 0. 0. 0.],-2.03125,-0.34375,9.5,[0. 0. 0. 0. 0. 0. 0. 0. 0.]
1742656849130786823,1742656849,114609884,imu_link,-0.0181884765625,0.101318359375,-0.00201416015625,0.99468994140625,[0. 0. 0. 0. 0. 0. 0. 0. 0.],-0.00390625,-0.001953125,0.0,[0. 0. 0. 0. 0. 0. 0. 0. 0.],-1.953125,-0.34375,9.578125,[0. 0. 0. 0. 0. 0. 0. 0. 0.]
1742656849135869455,1742656849,133983734,imu_link,-0.0181884765625,0.101318359375,-0.00201416015625,0.99468994140625,[0. 0. 0. 0. 0. 0. 0. 0. 0.],-0.00390625,-0.001953125,0.0,[0. 0. 0. 0. 0. 0. 0. 0. 0.],-1.953125,-0.34375,9.578125,[0. 0. 0. 0. 0. 0. 0. 0. 0.]
1742656849182508108,1742656849,153100753,imu_link,-0.0181884765625,0.101318359375,-0.001953125,0.99468994140625,[0. 0. 0. 0. 0. 0. 0. 0. 0.],-0.00390625,-0.00390625,0.00390625,[0. 0. 0. 0. 0. 0. 0. 0. 0.],-1.9140625,-0.34375,9.578125,[0. 0. 0. 0. 0. 0. 0. 0. 0.]
1742656849192167357,1742656849,187365371,imu_link,-0.0181884765625,0.101318359375,-0.001953125,0.99468994140625,[0. 0. 0. 0. 0. 0. 0. 0. 0.],-0.00390625,-0.00390625,0.00390625,[0. 0. 0. 0. 0. 0. 0. 0. 0.],-1.953125,-0.34375,9.5390625,[0. 0. 0. 0. 0. 0. 0. 0. 0.]
1742656849200058385,1742656849,193708360,imu_link,-0.0181884765625,0.101318359375,-0.001953125,0.99468994140625,[0. 0. 0. 0. 0. 0. 0. 0. 0.],-0.00390625,-0.00390625,0.00390625,[0. 0. 0. 0. 0. 0. 0. 0. 0.],-1.953125,-0.34375,9.5390625,[0. 0. 0. 0. 0. 0. 0. 0. 0.]
1742656849229179631,1742656849,215682941,imu_link,-0.0181884765625,0.101318359375,-0.0018310546875,0.99468994140625,[0. 0. 0. 0. 0. 0. 0. 0. 0.],-0.00390625,0.001953125,0.005859375,[0. 0. 0. 0. 0. 0. 0. 0. 0.],-1.953125,-0.3828125,9.578125,[0. 0. 0. 0. 0. 0. 0. 0. 0.]
1742656849241709498,1742656849,233171904,imu_link,-0.0181884765625,0.101318359375,-0.0018310546875,0.99468994140625,[0. 0. 0. 0. 0. 0. 0. 0. 0.],-0.00390625,0.001953125,0.005859375,[0. 0. 0. 0. 0. 0. 0. 0. 0.],-1.953125,-0.34375,9.578125,[0. 0. 0. 0. 0. 0. 0. 0. 0.]
1742656849260279838,1742656849,252101740,imu_link,-0.0181884765625,0.101318359375,-0.0018310546875,0.99468994140625,[0. 0. 0. 0. 0. 0. 0. 0. 0.],-0.005859375,-0.001953125,0.001953125,[0. 0. 0. 0. 0. 0. 0. 0. 0.],-1.953125,-0.34375,9.578125,[0. 0. 0. 0. 0. 0. 0. 0. 0.]
1742656849293041306,1742656849,273045907,imu_link,-0.01824951171875,0.10137939453125,-0.0018310546875,0.99468994140625,[0. 0. 0. 0. 0. 0. 0. 0. 0.],-0.005859375,-0.001953125,0.001953125,[0. 0. 0. 0. 0. 0. 0. 0. 0.],-1.953125,-0.3046875,9.54296875,[0. 0. 0. 0. 0. 0. 0. 0. 0.]
1742656849313801863,1742656849,297240243,imu_link,-0.01824951171875,0.10137939453125,-0.0018310546875,0.99468994140625,[0. 0. 0. 0. 0. 0. 0. 0. 0.],-0.005859375,0.001953125,0.0,[0. 0. 0. 0. 0. 0. 0. 0. 0.],-1.9140625,-0.3828125,9.578125,[0. 0. 0. 0. 0. 0. 0. 0. 0.]
1742656849339020281,1742656849,317283289,imu_link,-0.01837158203125,0.10137939453125,-0.0018310546875,0.99468994140625,[0. 0. 0. 0. 0. 0. 0. 0. 0.],-0.005859375,0.001953125,0.0,[0. 0. 0. 0. 0. 0. 0. 0. 0.],-1.953125,-0.421875,9.609375,[0. 0. 0. 0. 0. 0. 0. 0. 0.]
1742656849345657062,1742656849,342487799,imu_link,-0.01837158203125,0.10137939453125,-0.0018310546875,0.99468994140625,[0. 0. 0. 0. 0. 0. 0. 0. 0.],-0.005859375,0.001953125,0.0,[0. 0. 0. 0. 0. 0. 0. 0. 0.],-1.953125,-0.421875,9.609375,[0. 0. 0. 0. 0. 0. 0. 0. 0.]
1742656849357654713,1742656849,353645959,imu_link,-0.01837158203125,0.10137939453125,-0.0018310546875,0.99468994140625,[0. 0. 0. 0. 0. 0. 0. 0. 0.],0.001953125,0.0,0.00390625,[0. 0. 0. 0. 0. 0. 0. 0. 0.],-1.953125,-0.421875,9.609375,[0. 0. 0. 0. 0. 0. 0. 0. 0.]
1742656849384533446,1742656849,372148429,imu_link,-0.01837158203125,0.10137939453125,-0.001708984375,0.99468994140625,[0. 0. 0. 0. 0. 0. 0. 0. 0.],0.001953125,0.0,0.00390625,[0. 0. 0. 0. 0. 0. 0. 0. 0.],-2.03125,-0.3828125,9.5390625,[0. 0. 0. 0. 0. 0. 0. 0. 0.]
1742656849403527967,1742656849,392075514,imu_link,-0.01837158203125,0.10137939453125,-0.001708984375,0.99468994140625,[0. 0. 0. 0. 0. 0. 0. 0. 0.],0.009765625,0.001953125,0.005859375,[0. 0. 0. 0. 0. 0. 0. 0. 0.],-2.0703125,-0.3828125,9.50390625,[0. 0. 0. 0. 0. 0. 0. 0. 0.]
1742656849414392555,1742656849,412208152,imu_link,-0.01837158203125,0.10137939453125,-0.001708984375,0.99468994140625,[0. 0. 0. 0. 0. 0. 0. 0. 0.],0.009765625,0.001953125,0.005859375,[0. 0. 0. 0. 0. 0. 0. 0. 0.],-2.0703125,-0.3828125,9.50390625,[0. 0. 0. 0. 0. 0. 0. 0. 0.]
1742656849445378911,1742656849,432097904,imu_link,-0.018310546875,0.10137939453125,-0.0015869140625,0.99468994140625,[0. 0. 0. 0. 0. 0. 0. 0. 0.],0.009765625,0.001953125,0.005859375,[0. 0. 0. 0. 0. 0. 0. 0. 0.],-2.03125,-0.34375,9.578125,[0. 0. 0. 0. 0. 0. 0. 0. 0.]
1742656849460867118,1742656849,452831592,imu_link,-0.018310546875,0.10137939453125,-0.0015869140625,0.99468994140625,[0. 0. 0. 0. 0. 0. 0. 0. 0.],0.0078125,0.001953125,0.009765625,[0. 0. 0. 0. 0. 0. 0. 0. 0.],-1.953125,-0.3828125,9.5,[0. 0. 0. 0. 0. 0. 0. 0. 0.]
1742656849486028184,1742656849,472087721,imu_link,-0.01824951171875,0.101318359375,-0.00140380859375,0.99468994140625,[0. 0. 0. 0. 0. 0. 0. 0. 0.],0.0078125,0.001953125,0.009765625,[0. 0. 0. 0. 0. 0. 0. 0. 0.],-1.953125,-0.3828125,9.5,[0. 0. 0. 0. 0. 0. 0. 0. 0.]
1742656849495781062,1742656849,493869471,imu_link,-0.01824951171875,0.101318359375,-0.00140380859375,0.99468994140625,[0. 0. 0. 0. 0. 0. 0. 0. 0.],0.0078125,0.001953125,0.009765625,[0. 0. 0. 0. 0. 0. 0. 0. 0.],-1.87890625,-0.3828125,9.50390625,[0. 0. 0. 0. 0. 0. 0. 0. 0.]
1742656849531709792,1742656849,512418552,imu_link,-0.01824951171875,0.101318359375,-0.00115966796875,0.99468994140625,[0. 0. 0. 0. 0. 0. 0. 0. 0.],0.0078125,0.0,0.0078125,[0. 0. 0. 0. 0. 0. 0. 0. 0.],-1.87890625,-0.3828125,9.50390625,[0. 0. 0. 0. 0. 0. 0. 0. 0.]
1742656849541695797,1742656849,535043608,imu_link,-0.01824951171875,0.101318359375,-0.00115966796875,0.99468994140625,[0. 0. 0. 0. 0. 0. 0. 0. 0.],0.0078125,0.0,0.0078125,[0. 0. 0. 0. 0. 0. 0. 0. 0.],-1.953125,-0.34375,9.6875,[0. 0. 0. 0. 0. 0. 0. 0. 0.]
1742656849579159270,1742656849,554412143,imu_link,-0.01824951171875,0.10137939453125,-0.0010986328125,0.99468994140625,[0. 0. 0. 0. 0. 0. 0. 0. 0.],0.009765625,0.00390625,0.00390625,[0. 0. 0. 0. 0. 0. 0. 0. 0.],-1.953125,-0.3828125,9.4609375,[0. 0. 0. 0. 0. 0. 0. 0. 0.]
1742656849593940576,1742656849,591521953,imu_link,-0.01824951171875,0.10137939453125,-0.0010986328125,0.99468994140625,[0. 0. 0. 0. 0. 0. 0. 0. 0.],0.009765625,0.00390625,0.00390625,[0. 0. 0. 0. 0. 0. 0. 0. 0.],-1.83984375,-0.3828125,9.54296875,[0. 0. 0. 0. 0. 0. 0. 0. 0.]
1742656849604737665,1742656849,600549265,imu_link,-0.01824951171875,0.10137939453125,-0.0010986328125,0.99468994140625,[0. 0. 0. 0. 0. 0. 0. 0. 0.],0.01171875,0.00390625,0.0078125,[0. 0. 0. 0. 0. 0. 0. 0. 0.],-1.83984375,-0.3828125,9.54296875,[0. 0. 0. 0. 0. 0. 0. 0. 0.]
1742656849633194271,1742656849,614503636,imu_link,-0.0181884765625,0.1014404296875,-0.00091552734375,0.99468994140625,[0. 0. 0. 0. 0. 0. 0. 0. 0.],0.01171875,0.00390625,0.0078125,[0. 0. 0. 0. 0. 0. 0. 0. 0.],-1.953125,-0.3046875,9.6484375,[0. 0. 0. 0. 0. 0. 0. 0. 0.]
1742656849646067504,1742656849,636130165,imu_link,-0.0181884765625,0.1014404296875,-0.00091552734375,0.99468994140625,[0. 0. 0. 0. 0. 0. 0. 0. 0.],0.01171875,0.00390625,0.0078125,[0. 0. 0. 0. 0. 0. 0. 0. 0.],-1.953125,-0.3046875,9.6484375,[0. 0. 0. 0. 0. 0. 0. 0. 0.]
1742656849665569297,1742656849,660605480,imu_link,-0.0181884765625,0.1014404296875,-0.00091552734375,0.99468994140625,[0. 0. 0. 0. 0. 0. 0. 0. 0.],0.009765625,0.00390625,-0.001953125,[0. 0. 0. 0. 0. 0. 0. 0. 0.],-2.03125,-0.3046875,9.46484375,[0. 0. 0. 0. 0. 0. 0. 0. 0.]
1742656849687986708,1742656849,683724401,imu_link,-0.0181884765625,0.1014404296875,-0.00091552734375,0.99468994140625,[0. 0. 0. 0. 0. 0. 0. 0. 0.],0.009765625,0.00390625,-0.001953125,[0. 0. 0. 0. 0. 0. 0. 0. 0.],-1.9921875,-0.3828125,9.61328125,[0. 0. 0. 0. 0. 0. 0. 0. 0.]
1742656849701849542,1742656849,692132423,imu_link,-0.0181884765625,0.1014404296875,-0.00091552734375,0.99468994140625,[0. 0. 0. 0. 0. 0. 0. 0. 0.],0.0078125,0.00390625,0.01171875,[0. 0. 0. 0. 0. 0. 0. 0. 0.],-1.9921875,-0.3828125,9.61328125,[0. 0. 0. 0. 0. 0. 0. 0. 0.]
1742656849727507048,1742656849,712037804,imu_link,-0.01812744140625,0.1014404296875,-0.000732421875,0.99468994140625,[0. 0. 0. 0. 0. 0. 0. 0. 0.],0.0078125,0.00390625,0.01171875,[0. 0. 0. 0. 0. 0. 0. 0. 0.],-2.03125,-0.421875,9.609375,[0. 0. 0. 0. 0. 0. 0. 0. 0.]
1742656849733804518,1742656849,732036592,imu_link,-0.01812744140625,0.1014404296875,-0.000732421875,0.99468994140625,[0. 0. 0. 0. 0. 0. 0. 0. 0.],0.0078125,0.00390625,0.01171875,[0. 0. 0. 0. 0. 0. 0. 0. 0.],-2.03125,-0.421875,9.609375,[0. 0. 0. 0. 0. 0. 0. 0. 0.]
1742656849766043620,1742656849,752104231,imu_link,-0.01812744140625,0.1014404296875,-0.000732421875,0.99468994140625,[0. 0. 0. 0. 0. 0. 0. 0. 0.],-0.001953125,0.0,0.0,[0. 0. 0. 0. 0. 0. 0. 0. 0.],-2.0703125,-0.26953125,9.50390625,[0. 0. 0. 0. 0. 0. 0. 0. 0.]
1742656849784994141,1742656849,780386542,imu_link,-0.01812744140625,0.10137939453125,-0.0006103515625,0.99468994140625,[0. 0. 0. 0. 0. 0. 0. 0. 0.],-0.001953125,0.0,0.0,[0. 0. 0. 0. 0. 0. 0. 0. 0.],-1.9921875,-0.34375,9.578125,[0. 0. 0. 0. 0. 0. 0. 0. 0.]
1742656849794654872,1742656849,792180010,imu_link,-0.01812744140625,0.10137939453125,-0.0006103515625,0.99468994140625,[0. 0. 0. 0. 0. 0. 0. 0. 0.],-0.001953125,0.0,0.0,[0. 0. 0. 0. 0. 0. 0. 0. 0.],-1.9921875,-0.34375,9.578125,[0. 0. 0. 0. 0. 0. 0. 0. 0.]
1742656849814444125,1742656849,812130890,imu_link,-0.01812744140625,0.10137939453125,-0.0006103515625,0.99468994140625,[0. 0. 0. 0. 0. 0. 0. 0. 0.],-0.005859375,-0.001953125,0.005859375,[0. 0. 0. 0. 0. 0. 0. 0. 0.],-2.03125,-0.3046875,9.609375,[0. 0. 0. 0. 0. 0. 0. 0. 0.]
1742656849841108120,1742656849,832114401,imu_link,-0.01812744140625,0.1014404296875,-0.00048828125,0.99468994140625,[0. 0. 0. 0. 0. 0. 0. 0. 0.],-0.005859375,-0.001953125,0.005859375,[0. 0. 0. 0. 0. 0. 0. 0. 0.],-1.953125,-0.26953125,9.5390625,[0. 0. 0. 0. 0. 0. 0. 0. 0.]
1742656849865064421,1742656849,852649275,imu_link,-0.01812744140625,0.1014404296875,-0.00048828125,0.99468994140625,[0. 0. 0. 0. 0. 0. 0. 0. 0.],-0.00390625,-0.001953125,-0.00390625,[0. 0. 0. 0. 0. 0. 0. 0. 0.],-1.953125,-0.26953125,9.5390625,[0. 0. 0. 0. 0. 0. 0. 0. 0.]
1742656849890109026,1742656849,879995430,imu_link,-0.01812744140625,0.10150146484375,-0.00048828125,0.99468994140625,[0. 0. 0. 0. 0. 0. 0. 0. 0.],-0.00390625,-0.001953125,-0.00390625,[0. 0. 0. 0. 0. 0. 0. 0. 0.],-1.9140625,-0.3046875,9.54296875,[0. 0. 0. 0. 0. 0. 0. 0. 0.]
1742656849909778651,1742656849,893062810,imu_link,-0.01812744140625,0.10150146484375,-0.00048828125,0.99468994140625,[0. 0. 0. 0. 0. 0. 0. 0. 0.],-0.00390625,-0.001953125,-0.00390625,[0. 0. 0. 0. 0. 0. 0. 0. 0.],-1.9140625,-0.3046875,9.54296875,[0. 0. 0. 0. 0. 0. 0. 0. 0.]
1742656849936547015,1742656849,913902662,imu_link,-0.01812744140625,0.1014404296875,-0.0006103515625,0.99468994140625,[0. 0. 0. 0. 0. 0. 0. 0. 0.],-0.009765625,-0.005859375,-0.005859375,[0. 0. 0. 0. 0. 0. 0. 0. 0.],-1.953125,-0.3046875,9.58203125,[0. 0. 0. 0. 0. 0. 0. 0. 0.]
1742656849943816327,1742656849,940473288,imu_link,-0.01812744140625,0.1014404296875,-0.0006103515625,0.99468994140625,[0. 0. 0. 0. 0. 0. 0. 0. 0.],-0.009765625,-0.005859375,-0.005859375,[0. 0. 0. 0. 0. 0. 0. 0. 0.],-1.9140625,-0.421875,9.50390625,[0. 0. 0. 0. 0. 0. 0. 0. 0.]
1742656849957265962,1742656849,953588390,imu_link,-0.01812744140625,0.1014404296875,-0.0006103515625,0.99468994140625,[0. 0. 0. 0. 0. 0. 0. 0. 0.],-0.009765625,-0.001953125,0.00390625,[0. 0. 0. 0. 0. 0. 0. 0. 0.],-1.9140625,-0.421875,9.50390625,[0. 0. 0. 0. 0. 0. 0. 0. 0.]
1742656850002884718,1742656849,972525929,imu_link,-0.01806640625,0.1014404296875,-0.00054931640625,0.99468994140625,[0. 0. 0. 0. 0. 0. 0. 0. 0.],-0.005859375,-0.00390625,0.001953125,[0. 0. 0. 0. 0. 0. 0. 0. 0.],-1.953125,-0.4609375,9.578125,[0. 0. 0. 0. 0. 0. 0. 0. 0.]
1742656850011000577,1742656850,6677252,imu_link,-0.01806640625,0.1014404296875,-0.00054931640625,0.99468994140625,[0. 0. 0. 0. 0. 0. 0. 0. 0.],-0.005859375,-0.00390625,0.001953125,[0. 0. 0. 0. 0. 0. 0. 0. 0.],-2.10546875,-0.34375,9.609375,[0. 0. 0. 0. 0. 0. 0. 0. 0.]
1742656850030828072,1742656850,14342301,imu_link,-0.0179443359375,0.1014404296875,-0.00048828125,0.99468994140625,[0. 0. 0. 0. 0. 0. 0. 0. 0.],-0.005859375,-0.00390625,0.001953125,[0. 0. 0. 0. 0. 0. 0. 0. 0.],-2.10546875,-0.3046875,9.5390625,[0. 0. 0. 0. 0. 0. 0. 0. 0.]
1742656850037065117,1742656850,33743856,imu_link,-0.0179443359375,0.1014404296875,-0.00048828125,0.99468994140625,[0. 0. 0. 0. 0. 0. 0. 0. 0.],-0.005859375,-0.00390625,0.001953125,[0. 0. 0. 0. 0. 0. 0. 0. 0.],-2.10546875,-0.3046875,9.5390625,[0. 0. 0. 0. 0. 0. 0. 0. 0.]
1742656850062694069,1742656850,52102811,imu_link,-0.0179443359375,0.1014404296875,-0.00048828125,0.99468994140625,[0. 0. 0. 0. 0. 0. 0. 0. 0.],-0.005859375,-0.001953125,-0.001953125,[0. 0. 0. 0. 0. 0. 0. 0. 0.],-2.10546875,-0.3046875,9.5390625,[0. 0. 0. 0. 0. 0. 0. 0. 0.]
1742656850084074381,1742656850,72371727,imu_link,-0.01788330078125,0.1014404296875,-0.00048828125,0.99468994140625,[0. 0. 0. 0. 0. 0. 0. 0. 0.],-0.005859375,-0.001953125,-0.001953125,[0. 0. 0. 0. 0. 0. 0. 0. 0.],-1.953125,-0.3046875,9.54296875,[0. 0. 0. 0. 0. 0. 0. 0. 0.]
1742656850100641596,1742656850,92650772,imu_link,-0.01788330078125,0.1014404296875,-0.00048828125,0.99468994140625,[0. 0. 0. 0. 0. 0. 0. 0. 0.],-0.005859375,-0.00390625,0.0,[0. 0. 0. 0. 0. 0. 0. 0. 0.],-1.953125,-0.3046875,9.58203125,[0. 0. 0. 0. 0. 0. 0. 0. 0.]
1742656850115163813,1742656850,112196270,imu_link,-0.01788330078125,0.1014404296875,-0.00048828125,0.99468994140625,[0. 0. 0. 0. 0. 0. 0. 0. 0.],-0.005859375,-0.00390625,0.0,[0. 0. 0. 0. 0. 0. 0. 0. 0.],-1.953125,-0.3046875,9.58203125,[0. 0. 0. 0. 0. 0. 0. 0. 0.]
1742656850134216946,1742656850,132343002,imu_link,-0.017822265625,0.10150146484375,-0.00048828125,0.99468994140625,[0. 0. 0. 0. 0. 0. 0. 0. 0.],-0.005859375,-0.00390625,0.0,[0. 0. 0. 0. 0. 0. 0. 0. 0.],-1.953125,-0.3828125,9.5,[0. 0. 0. 0. 0. 0. 0. 0. 0.]
1742656850162936699,1742656850,152156331,imu_link,-0.017822265625,0.10150146484375,-0.00048828125,0.99468994140625,[0. 0. 0. 0. 0. 0. 0. 0. 0.],-0.00390625,-0.001953125,0.0,[0. 0. 0. 0. 0. 0. 0. 0. 0.],-1.87890625,-0.3828125,9.6484375,[0. 0. 0. 0. 0. 0. 0. 0. 0.]
1742656850191611526,1742656850,172942834,imu_link,-0.0177001953125,0.1015625,-0.00048828125,0.99468994140625,[0. 0. 0. 0. 0. 0. 0. 0. 0.],-0.00390625,-0.001953125,0.0,[0. 0. 0. 0. 0. 0. 0. 0. 0.],-1.87890625,-0.3828125,9.54296875,[0. 0. 0. 0. 0. 0. 0. 0. 0.]
1742656850203411235,1742656850,199795903,imu_link,-0.0177001953125,0.1015625,-0.00048828125,0.99468994140625,[0. 0. 0. 0. 0. 0. 0. 0. 0.],-0.009765625,-0.001953125,0.005859375,[0. 0. 0. 0. 0. 0. 0. 0. 0.],-1.87890625,-0.3828125,9.54296875,[0. 0. 0. 0. 0. 0. 0. 0. 0.]
1742656850230764225,1742656850,212937042,imu_link,-0.01763916015625,0.1015625,-0.0003662109375,0.99468994140625,[0. 0. 0. 0. 0. 0. 0. 0. 0.],-0.009765625,-0.001953125,0.005859375,[0. 0. 0. 0. 0. 0. 0. 0. 0.],-1.953125,-0.34375,9.5,[0. 0. 0. 0. 0. 0. 0. 0. 0.]
1742656850241409112,1742656850,237523283,imu_link,-0.01763916015625,0.1015625,-0.0003662109375,0.99468994140625,[0. 0. 0. 0. 0. 0. 0. 0. 0.],-0.009765625,-0.001953125,0.005859375,[0. 0. 0. 0. 0. 0. 0. 0. 0.],-1.953125,-0.34375,9.5,[0. 0. 0. 0. 0. 0. 0. 0. 0.]
1742656850273964362,1742656850,252418774,imu_link,-0.0177001953125,0.10150146484375,-0.00042724609375,0.99468994140625,[0. 0. 0. 0. 0. 0. 0. 0. 0.],-0.00390625,-0.00390625,-0.001953125,[0. 0. 0. 0. 0. 0. 0. 0. 0.],-1.9921875,-0.26953125,9.578125,[0. 0. 0. 0. 0. 0. 0. 0. 0.]
1742656850283648242,1742656850,281660059,imu_link,-0.0177001953125,0.10150146484375,-0.00042724609375,0.99468994140625,[0. 0. 0. 0. 0. 0. 0. 0. 0.],-0.00390625,-0.00390625,-0.001953125,[0. 0. 0. 0. 0. 0. 0. 0. 0.],-2.03125,-0.3046875,9.609375,[0. 0. 0. 0. 0. 0. 0. 0. 0.]
1742656850302129825,1742656850,292119208,imu_link,-0.0177001953125,0.10150146484375,-0.00042724609375,0.99468994140625,[0. 0. 0. 0. 0. 0. 0. 0. 0.],0.001953125,-0.00390625,0.00390625,[0. 0. 0. 0. 0. 0. 0. 0. 0.],-2.03125,-0.3046875,9.609375,[0. 0. 0. 0. 0. 0. 0. 0. 0.]
1742656850337600636,1742656850,313971848,imu_link,-0.0177001953125,0.10150146484375,-0.00042724609375,0.99468994140625,[0. 0. 0. 0. 0. 0. 0. 0. 0.],0.001953125,-0.00390625,0.00390625,[0. 0. 0. 0. 0. 0. 0. 0. 0.],-2.0703125,-0.3046875,9.578125,[0. 0. 0. 0. 0. 0. 0. 0. 0.]
1742656850360969038,1742656850,357187300,imu_link,-0.0177001953125,0.10150146484375,-0.00042724609375,0.99468994140625,[0. 0. 0. 0. 0. 0. 0. 0. 0.],0.001953125,-0.001953125,-0.00390625,[0. 0. 0. 0. 0. 0. 0. 0. 0.],-2.10546875,-0.34375,9.54296875,[0. 0. 0. 0. 0. 0. 0. 0. 0.]
1742656850389387313,1742656850,373121132,imu_link,-0.0177001953125,0.1014404296875,-0.00054931640625,0.99468994140625,[0. 0. 0. 0. 0. 0. 0. 0. 0.],0.001953125,-0.001953125,-0.00390625,[0. 0. 0. 0. 0. 0. 0. 0. 0.],-1.953125,-0.421875,9.609375,[0. 0. 0. 0. 0. 0. 0. 0. 0.]
1742656850404816780,1742656850,392485336,imu_link,-0.0177001953125,0.1014404296875,-0.00054931640625,0.99468994140625,[0. 0. 0. 0. 0. 0. 0. 0. 0.],0.005859375,0.0,0.0078125,[0. 0. 0. 0. 0. 0. 0. 0. 0.],-1.953125,-0.421875,9.609375,[0. 0. 0. 0. 0. 0. 0. 0. 0.]
1742656850424802680,1742656850,412092759,imu_link,-0.0177001953125,0.10137939453125,-0.00042724609375,0.99468994140625,[0. 0. 0. 0. 0. 0. 0. 0. 0.],0.005859375,0.0,0.0078125,[0. 0. 0. 0. 0. 0. 0. 0. 0.],-1.87890625,-0.34375,9.54296875,[0. 0. 0. 0. 0. 0. 0. 0. 0.]
1742656850439110585,1742656850,432033567,imu_link,-0.0177001953125,0.10137939453125,-0.00042724609375,0.99468994140625,[0. 0. 0. 0. 0. 0. 0. 0. 0.],0.005859375,0.0,0.0078125,[0. 0. 0. 0. 0. 0. 0. 0. 0.],-1.9140625,-0.3828125,9.5,[0. 0. 0. 0. 0. 0. 0. 0. 0.]
1742656850460754246,1742656850,452216725,imu_link,-0.0177001953125,0.10137939453125,-0.00042724609375,0.99468994140625,[0. 0. 0. 0. 0. 0. 0. 0. 0.],0.013671875,0.0,0.00390625,[0. 0. 0. 0. 0. 0. 0. 0. 0.],-1.9140625,-0.3828125,9.5,[0. 0. 0. 0. 0. 0. 0. 0. 0.]
1742656850484808196,1742656850,479626492,imu_link,-0.01763916015625,0.10137939453125,-0.00042724609375,0.99468994140625,[0. 0. 0. 0. 0. 0. 0. 0. 0.],0.013671875,0.0,0.00390625,[0. 0. 0. 0. 0. 0. 0. 0. 0.],-1.9140625,-0.34375,9.65234375,[0. 0. 0. 0. 0. 0. 0. 0. 0.]
1742656850502948246,1742656850,492052935,imu_link,-0.01763916015625,0.10137939453125,-0.00042724609375,0.99468994140625,[0. 0. 0. 0. 0. 0. 0. 0. 0.],0.009765625,-0.001953125,0.001953125,[0. 0. 0. 0. 0. 0. 0. 0. 0.],-1.9140625,-0.34375,9.65234375,[0. 0. 0. 0. 0. 0. 0. 0. 0.]
1742656850552918405,1742656850,512376535,imu_link,-0.01763916015625,0.101318359375,-0.0003662109375,0.99468994140625,[0. 0. 0. 0. 0. 0. 0. 0. 0.],0.009765625,0.001953125,0.0,[0. 0. 0. 0. 0. 0. 0. 0. 0.],-1.953125,-0.3046875,9.58203125,[0. 0. 0. 0. 0. 0. 0. 0. 0.]
1742656850583697284,1742656850,556630514,imu_link,-0.01763916015625,0.101318359375,-0.00048828125,0.99468994140625,[0. 0. 0. 0. 0. 0. 0. 0. 0.],0.009765625,0.001953125,0.0,[0. 0. 0. 0. 0. 0. 0. 0. 0.],-1.953125,-0.3046875,9.58203125,[0. 0. 0. 0. 0. 0. 0. 0. 0.]
1742656850598922346,1742656850,587069378,imu_link,-0.01763916015625,0.101318359375,-0.00048828125,0.99468994140625,[0. 0. 0. 0. 0. 0. 0. 0. 0.],0.009765625,0.001953125,0.0,[0. 0. 0. 0. 0. 0. 0. 0. 0.],-1.9921875,-0.34375,9.61328125,[0. 0. 0. 0. 0. 0. 0. 0. 0.]
1742656850604886172,1742656850,601791149,imu_link,-0.01763916015625,0.101318359375,-0.00048828125,0.99468994140625,[0. 0. 0. 0. 0. 0. 0. 0. 0.],0.005859375,0.0,0.005859375,[0. 0. 0. 0. 0. 0. 0. 0. 0.],-1.9921875,-0.4609375,9.5390625,[0. 0. 0. 0. 0. 0. 0. 0. 0.]
1742656850632308420,1742656850,612533721,imu_link,-0.01763916015625,0.10125732421875,-0.00030517578125,0.99468994140625,[0. 0. 0. 0. 0. 0. 0. 0. 0.],0.005859375,0.0,0.005859375,[0. 0. 0. 0. 0. 0. 0. 0. 0.],-2.0703125,-0.34375,9.58203125,[0. 0. 0. 0. 0. 0. 0. 0. 0.]
1742656850639345901,1742656850,635090446,imu_link,-0.01763916015625,0.10125732421875,-0.00030517578125,0.99468994140625,[0. 0. 0. 0. 0. 0. 0. 0. 0.],0.005859375,0.0,0.005859375,[0. 0. 0. 0. 0. 0. 0. 0. 0.],-2.0703125,-0.34375,9.58203125,[0. 0. 0. 0. 0. 0. 0. 0. 0.]
1742656850677507536,1742656850,652167785,imu_link,-0.01763916015625,0.10125732421875,-0.00030517578125,0.99468994140625,[0. 0. 0. 0. 0. 0. 0. 0. 0.],0.001953125,0.001953125,0.0,[0. 0. 0. 0. 0. 0. 0. 0. 0.],-2.03125,-0.34375,9.61328125,[0. 0. 0. 0. 0. 0. 0. 0. 0.]
1742656850685161030,1742656850,681092110,imu_link,-0.01763916015625,0.10125732421875,-0.00030517578125,0.99468994140625,[0. 0. 0. 0. 0. 0. 0. 0. 0.],0.001953125,0.001953125,0.0,[0. 0. 0. 0. 0. 0. 0. 0. 0.],-2.03125,-0.34375,9.61328125,[0. 0. 0. 0. 0. 0. 0. 0. 0.]
1742656850708777985,1742656850,703021934,imu_link,-0.01763916015625,0.10125732421875,-0.00030517578125,0.99468994140625,[0. 0. 0. 0. 0. 0. 0. 0. 0.],0.0,0.0,0.001953125,[0. 0. 0. 0. 0. 0. 0. 0. 0.],-1.9921875,-0.3046875,9.46484375,[0. 0. 0. 0. 0. 0. 0. 0. 0.]
1742656850729635858,1742656850,713359418,imu_link,-0.0177001953125,0.10125732421875,-0.000244140625,0.99468994140625,[0. 0. 0. 0. 0. 0. 0. 0. 0.],0.0,0.0,0.001953125,[0. 0. 0. 0. 0. 0. 0. 0. 0.],-1.87890625,-0.26953125,9.54296875,[0. 0. 0. 0. 0. 0. 0. 0. 0.]
1742656850735178577,1742656850,732120535,imu_link,-0.0177001953125,0.10125732421875,-0.000244140625,0.99468994140625,[0. 0. 0. 0. 0. 0. 0. 0. 0.],0.0,0.0,0.001953125,[0. 0. 0. 0. 0. 0. 0. 0. 0.],-1.87890625,-0.26953125,9.54296875,[0. 0. 0. 0. 0. 0. 0. 0. 0.]
1742656850762646787,1742656850,752241786,imu_link,-0.0177001953125,0.10125732421875,-0.000244140625,0.99468994140625,[0. 0. 0. 0. 0. 0. 0. 0. 0.],-0.00390625,-0.00390625,-0.001953125,[0. 0. 0. 0. 0. 0. 0. 0. 0.],-1.80078125,-0.3828125,9.61328125,[0. 0. 0. 0. 0. 0. 0. 0. 0.]
1742656850779257427,1742656850,774824770,imu_link,-0.017822265625,0.1011962890625,-0.000244140625,0.99468994140625,[0. 0. 0. 0. 0. 0. 0. 0. 0.],-0.00390625,-0.00390625,-0.001953125,[0. 0. 0. 0. 0. 0. 0. 0. 0.],-1.80078125,-0.3828125,9.61328125,[0. 0. 0. 0. 0. 0. 0. 0. 0.]
1742656850800608054,1742656850,792162902,imu_link,-0.017822265625,0.1011962890625,-0.000244140625,0.99468994140625,[0. 0. 0. 0. 0. 0. 0. 0. 0.],-0.005859375,0.001953125,0.001953125,[0. 0. 0. 0. 0. 0. 0. 0. 0.],-1.9140625,-0.3828125,9.578125,[0. 0. 0. 0. 0. 0. 0. 0. 0.]
1742656850827150460,1742656850,812036378,imu_link,-0.017822265625,0.10125732421875,-0.00018310546875,0.99468994140625,[0. 0. 0. 0. 0. 0. 0. 0. 0.],-0.005859375,0.001953125,0.001953125,[0. 0. 0. 0. 0. 0. 0. 0. 0.],-1.9921875,-0.3828125,9.5390625,[0. 0. 0. 0. 0. 0. 0. 0. 0.]
1742656850836235623,1742656850,832051056,imu_link,-0.017822265625,0.10125732421875,-0.00018310546875,0.99468994140625,[0. 0. 0. 0. 0. 0. 0. 0. 0.],-0.005859375,0.001953125,0.001953125,[0. 0. 0. 0. 0. 0. 0. 0. 0.],-1.9921875,-0.3828125,9.5390625,[0. 0. 0. 0. 0. 0. 0. 0. 0.]
1742656850880624193,1742656850,852287750,imu_link,-0.017822265625,0.10113525390625,-6.103515625e-05,0.99468994140625,[0. 0. 0. 0. 0. 0. 0. 0. 0.],-0.009765625,-0.001953125,0.00390625,[0. 0. 0. 0. 0. 0. 0. 0. 0.],-1.953125,-0.34375,9.578125,[0. 0. 0. 0. 0. 0. 0. 0. 0.]
