timestamp,header.stamp.sec,header.stamp.nanosec,header.frame_id,orientation.x,orientation.y,orientation.z,orientation.w,orientation_covariance,angular_velocity.x,angular_velocity.y,angular_velocity.z,angular_velocity_covariance,linear_acceleration.x,linear_acceleration.y,linear_acceleration.z,linear_acceleration_covariance
1742664202054132038,1742664201,720471637,imu_link,-0.01556396484375,0.098388671875,-0.0009765625,0.9949951171875,[0. 0. 0. 0. 0. 0. 0. 0. 0.],0.0,0.0,0.0,[0. 0. 0. 0. 0. 0. 0. 0. 0.],-1.9140625,-0.3046875,9.58203125,[0. 0. 0. 0. 0. 0. 0. 0. 0.]
1742664202054300409,1742664201,740405149,imu_link,-0.01556396484375,0.098388671875,-0.0009765625,0.9949951171875,[0. 0. 0. 0. 0. 0. 0. 0. 0.],0.0,0.0,0.0,[0. 0. 0. 0. 0. 0. 0. 0. 0.],-1.9140625,-0.3046875,9.58203125,[0. 0. 0. 0. 0. 0. 0. 0. 0.]
1742664202054328668,1742664201,760263865,imu_link,-0.01556396484375,0.098388671875,-0.0009765625,0.9949951171875,[0. 0. 0. 0. 0. 0. 0. 0. 0.],0.0,0.0,0.0,[0. 0. 0. 0. 0. 0. 0. 0. 0.],-1.9140625,-0.3046875,9.58203125,[0. 0. 0. 0. 0. 0. 0. 0. 0.]
1742664202054382335,1742664201,780340859,imu_link,-0.01556396484375,0.098388671875,-0.0009765625,0.9949951171875,[0. 0. 0. 0. 0. 0. 0. 0. 0.],0.0,0.0,0.0,[0. 0. 0. 0. 0. 0. 0. 0. 0.],-1.87890625,-0.3046875,9.578125,[0. 0. 0. 0. 0. 0. 0. 0. 0.]
1742664202054404113,1742664201,800267167,imu_link,-0.01556396484375,0.098388671875,-0.0009765625,0.9949951171875,[0. 0. 0. 0. 0. 0. 0. 0. 0.],0.0,0.0,0.0,[0. 0. 0. 0. 0. 0. 0. 0. 0.],-1.9140625,-0.3046875,9.58203125,[0. 0. 0. 0. 0. 0. 0. 0. 0.]
1742664202054471540,1742664201,820242809,imu_link,-0.01556396484375,0.098388671875,-0.0009765625,0.9949951171875,[0. 0. 0. 0. 0. 0. 0. 0. 0.],0.0,0.0,0.0,[0. 0. 0. 0. 0. 0. 0. 0. 0.],-1.9140625,-0.3046875,9.58203125,[0. 0. 0. 0. 0. 0. 0. 0. 0.]
1742664202054657078,1742664201,840231970,imu_link,-0.01556396484375,0.098388671875,-0.0009765625,0.9949951171875,[0. 0. 0. 0. 0. 0. 0. 0. 0.],0.0,0.0,0.0,[0. 0. 0. 0. 0. 0. 0. 0. 0.],-1.9140625,-0.3046875,9.58203125,[0. 0. 0. 0. 0. 0. 0. 0. 0.]
1742664202054694707,1742664201,860289816,imu_link,-0.01556396484375,0.098388671875,-0.0009765625,0.9949951171875,[0. 0. 0. 0. 0. 0. 0. 0. 0.],0.0,0.0,0.0,[0. 0. 0. 0. 0. 0. 0. 0. 0.],-1.9140625,-0.3046875,9.58203125,[0. 0. 0. 0. 0. 0. 0. 0. 0.]
1742664202055220266,1742664201,880874165,imu_link,-0.01556396484375,0.098388671875,-0.0009765625,0.9949951171875,[0. 0. 0. 0. 0. 0. 0. 0. 0.],0.0,0.0,0.0,[0. 0. 0. 0. 0. 0. 0. 0. 0.],-1.9140625,-0.3046875,9.58203125,[0. 0. 0. 0. 0. 0. 0. 0. 0.]
1742664202055245395,1742664201,900301915,imu_link,-0.01556396484375,0.098388671875,-0.0009765625,0.9949951171875,[0. 0. 0. 0. 0. 0. 0. 0. 0.],0.0,0.0,0.0,[0. 0. 0. 0. 0. 0. 0. 0. 0.],-1.9140625,-0.3046875,9.58203125,[0. 0. 0. 0. 0. 0. 0. 0. 0.]
1742664202055282766,1742664201,920315020,imu_link,-0.01556396484375,0.098388671875,-0.0009765625,0.9949951171875,[0. 0. 0. 0. 0. 0. 0. 0. 0.],0.0,0.0,0.0,[0. 0. 0. 0. 0. 0. 0. 0. 0.],-1.9140625,-0.3046875,9.58203125,[0. 0. 0. 0. 0. 0. 0. 0. 0.]
1742664202055299877,1742664201,940251810,imu_link,-0.01556396484375,0.098388671875,-0.0009765625,0.9949951171875,[0. 0. 0. 0. 0. 0. 0. 0. 0.],0.0,0.0,0.0,[0. 0. 0. 0. 0. 0. 0. 0. 0.],-1.9140625,-0.3046875,9.58203125,[0. 0. 0. 0. 0. 0. 0. 0. 0.]
1742664202055333174,1742664201,960317101,imu_link,-0.01556396484375,0.098388671875,-0.0009765625,0.9949951171875,[0. 0. 0. 0. 0. 0. 0. 0. 0.],0.0,0.0,0.0,[0. 0. 0. 0. 0. 0. 0. 0. 0.],-1.9140625,-0.3046875,9.58203125,[0. 0. 0. 0. 0. 0. 0. 0. 0.]
1742664202055363952,1742664201,980267465,imu_link,-0.01556396484375,0.098388671875,-0.0009765625,0.9949951171875,[0. 0. 0. 0. 0. 0. 0. 0. 0.],0.0,0.0,0.0,[0. 0. 0. 0. 0. 0. 0. 0. 0.],-1.9140625,-0.3046875,9.58203125,[0. 0. 0. 0. 0. 0. 0. 0. 0.]
1742664202055387359,1742664202,337070,imu_link,-0.01556396484375,0.098388671875,-0.0009765625,0.9949951171875,[0. 0. 0. 0. 0. 0. 0. 0. 0.],0.0,0.0,0.0,[0. 0. 0. 0. 0. 0. 0. 0. 0.],-1.9140625,-0.3046875,9.58203125,[0. 0. 0. 0. 0. 0. 0. 0. 0.]
1742664202055418026,1742664202,20251471,imu_link,-0.01556396484375,0.09844970703125,-0.0009765625,0.9949951171875,[0. 0. 0. 0. 0. 0. 0. 0. 0.],0.0,0.0,0.0,[0. 0. 0. 0. 0. 0. 0. 0. 0.],-1.9140625,-0.3046875,9.58203125,[0. 0. 0. 0. 0. 0. 0. 0. 0.]
1742664202055437322,1742664202,40302280,imu_link,-0.01556396484375,0.09844970703125,-0.0009765625,0.9949951171875,[0. 0. 0. 0. 0. 0. 0. 0. 0.],0.0,0.0,0.0,[0. 0. 0. 0. 0. 0. 0. 0. 0.],-1.9140625,-0.3046875,9.58203125,[0. 0. 0. 0. 0. 0. 0. 0. 0.]
1742664202078770760,1742664202,60583016,imu_link,-0.01556396484375,0.09844970703125,-0.0009765625,0.9949951171875,[0. 0. 0. 0. 0. 0. 0. 0. 0.],0.0,0.0,0.0,[0. 0. 0. 0. 0. 0. 0. 0. 0.],-1.9140625,-0.3046875,9.58203125,[0. 0. 0. 0. 0. 0. 0. 0. 0.]
1742664202086635153,1742664202,81311180,imu_link,-0.01556396484375,0.09844970703125,-0.0009765625,0.9949951171875,[0. 0. 0. 0. 0. 0. 0. 0. 0.],0.0,0.0,0.0,[0. 0. 0. 0. 0. 0. 0. 0. 0.],-1.9140625,-0.3046875,9.58203125,[0. 0. 0. 0. 0. 0. 0. 0. 0.]
1742664202107438781,1742664202,100297336,imu_link,-0.01556396484375,0.09844970703125,-0.0009765625,0.9949951171875,[0. 0. 0. 0. 0. 0. 0. 0. 0.],0.0,0.0,0.0,[0. 0. 0. 0. 0. 0. 0. 0. 0.],-1.9140625,-0.3046875,9.54296875,[0. 0. 0. 0. 0. 0. 0. 0. 0.]
1742664202133329768,1742664202,120746443,imu_link,-0.01556396484375,0.09844970703125,-0.0009765625,0.9949951171875,[0. 0. 0. 0. 0. 0. 0. 0. 0.],0.0,0.0,0.0,[0. 0. 0. 0. 0. 0. 0. 0. 0.],-1.9140625,-0.3046875,9.58203125,[0. 0. 0. 0. 0. 0. 0. 0. 0.]
1742664202142036148,1742664202,140291953,imu_link,-0.01556396484375,0.09844970703125,-0.0009765625,0.9949951171875,[0. 0. 0. 0. 0. 0. 0. 0. 0.],0.0,0.0,0.0,[0. 0. 0. 0. 0. 0. 0. 0. 0.],-1.9140625,-0.3046875,9.58203125,[0. 0. 0. 0. 0. 0. 0. 0. 0.]
1742664202161997326,1742664202,160254336,imu_link,-0.01556396484375,0.09844970703125,-0.0009765625,0.9949951171875,[0. 0. 0. 0. 0. 0. 0. 0. 0.],0.0,0.0,0.0,[0. 0. 0. 0. 0. 0. 0. 0. 0.],-1.9140625,-0.3046875,9.58203125,[0. 0. 0. 0. 0. 0. 0. 0. 0.]
1742664202187608554,1742664202,180290145,imu_link,-0.01556396484375,0.09844970703125,-0.0009765625,0.9949951171875,[0. 0. 0. 0. 0. 0. 0. 0. 0.],0.0,0.0,0.0,[0. 0. 0. 0. 0. 0. 0. 0. 0.],-1.9140625,-0.3046875,9.58203125,[0. 0. 0. 0. 0. 0. 0. 0. 0.]
1742664202207670122,1742664202,200382398,imu_link,-0.01556396484375,0.09844970703125,-0.0009765625,0.9949951171875,[0. 0. 0. 0. 0. 0. 0. 0. 0.],0.0,0.0,0.0,[0. 0. 0. 0. 0. 0. 0. 0. 0.],-1.9140625,-0.3046875,9.58203125,[0. 0. 0. 0. 0. 0. 0. 0. 0.]
1742664202227044964,1742664202,223331649,imu_link,-0.01556396484375,0.09844970703125,-0.0009765625,0.9949951171875,[0. 0. 0. 0. 0. 0. 0. 0. 0.],0.0,0.0,0.0,[0. 0. 0. 0. 0. 0. 0. 0. 0.],-1.9140625,-0.3046875,9.58203125,[0. 0. 0. 0. 0. 0. 0. 0. 0.]
1742664202251587297,1742664202,240380720,imu_link,-0.01556396484375,0.09844970703125,-0.0009765625,0.9949951171875,[0. 0. 0. 0. 0. 0. 0. 0. 0.],0.0,0.0,0.0,[0. 0. 0. 0. 0. 0. 0. 0. 0.],-1.9140625,-0.3046875,9.58203125,[0. 0. 0. 0. 0. 0. 0. 0. 0.]
1742664202262169945,1742664202,260355621,imu_link,-0.01556396484375,0.09844970703125,-0.0009765625,0.9949951171875,[0. 0. 0. 0. 0. 0. 0. 0. 0.],0.0,0.0,0.0,[0. 0. 0. 0. 0. 0. 0. 0. 0.],-1.9140625,-0.3046875,9.58203125,[0. 0. 0. 0. 0. 0. 0. 0. 0.]
1742664202282059290,1742664202,280281503,imu_link,-0.01556396484375,0.09844970703125,-0.0009765625,0.9949951171875,[0. 0. 0. 0. 0. 0. 0. 0. 0.],0.0,0.0,0.0,[0. 0. 0. 0. 0. 0. 0. 0. 0.],-1.9140625,-0.3046875,9.58203125,[0. 0. 0. 0. 0. 0. 0. 0. 0.]
1742664202310474402,1742664202,300367164,imu_link,-0.01556396484375,0.09844970703125,-0.0009765625,0.9949951171875,[0. 0. 0. 0. 0. 0. 0. 0. 0.],0.0,0.0,0.0,[0. 0. 0. 0. 0. 0. 0. 0. 0.],-1.9140625,-0.3046875,9.58203125,[0. 0. 0. 0. 0. 0. 0. 0. 0.]
1742664202332349703,1742664202,320800549,imu_link,-0.01556396484375,0.09844970703125,-0.0009765625,0.9949951171875,[0. 0. 0. 0. 0. 0. 0. 0. 0.],0.0,0.0,0.0,[0. 0. 0. 0. 0. 0. 0. 0. 0.],-1.9140625,-0.3046875,9.58203125,[0. 0. 0. 0. 0. 0. 0. 0. 0.]
1742664202350856115,1742664202,340292763,imu_link,-0.01556396484375,0.09844970703125,-0.0009765625,0.9949951171875,[0. 0. 0. 0. 0. 0. 0. 0. 0.],0.0,0.0,0.0,[0. 0. 0. 0. 0. 0. 0. 0. 0.],-1.9140625,-0.3046875,9.58203125,[0. 0. 0. 0. 0. 0. 0. 0. 0.]
1742664202362115063,1742664202,360298220,imu_link,-0.01556396484375,0.09844970703125,-0.0009765625,0.9949951171875,[0. 0. 0. 0. 0. 0. 0. 0. 0.],0.0,0.0,0.0,[0. 0. 0. 0. 0. 0. 0. 0. 0.],-1.9140625,-0.3046875,9.58203125,[0. 0. 0. 0. 0. 0. 0. 0. 0.]
1742664202382342743,1742664202,380393918,imu_link,-0.01556396484375,0.09844970703125,-0.0009765625,0.9949951171875,[0. 0. 0. 0. 0. 0. 0. 0. 0.],0.0,0.0,0.0,[0. 0. 0. 0. 0. 0. 0. 0. 0.],-1.9140625,-0.3046875,9.58203125,[0. 0. 0. 0. 0. 0. 0. 0. 0.]
1742664202411356691,1742664202,400373708,imu_link,-0.01556396484375,0.09844970703125,-0.0009765625,0.9949951171875,[0. 0. 0. 0. 0. 0. 0. 0. 0.],0.0,0.0,0.0,[0. 0. 0. 0. 0. 0. 0. 0. 0.],-1.9140625,-0.3046875,9.58203125,[0. 0. 0. 0. 0. 0. 0. 0. 0.]
1742664202437296439,1742664202,420768741,imu_link,-0.01556396484375,0.09844970703125,-0.0009765625,0.9949951171875,[0. 0. 0. 0. 0. 0. 0. 0. 0.],0.0,0.0,0.0,[0. 0. 0. 0. 0. 0. 0. 0. 0.],-1.9140625,-0.3046875,9.54296875,[0. 0. 0. 0. 0. 0. 0. 0. 0.]
1742664202446364264,1742664202,440286436,imu_link,-0.01556396484375,0.09844970703125,-0.0009765625,0.9949951171875,[0. 0. 0. 0. 0. 0. 0. 0. 0.],0.0,0.0,0.0,[0. 0. 0. 0. 0. 0. 0. 0. 0.],-1.9140625,-0.3046875,9.54296875,[0. 0. 0. 0. 0. 0. 0. 0. 0.]
1742664202475997864,1742664202,460376708,imu_link,-0.01556396484375,0.09844970703125,-0.0009765625,0.9949951171875,[0. 0. 0. 0. 0. 0. 0. 0. 0.],0.0,0.0,0.0,[0. 0. 0. 0. 0. 0. 0. 0. 0.],-1.9140625,-0.3046875,9.54296875,[0. 0. 0. 0. 0. 0. 0. 0. 0.]
1742664202482099341,1742664202,480283442,imu_link,-0.01556396484375,0.09844970703125,-0.0009765625,0.9949951171875,[0. 0. 0. 0. 0. 0. 0. 0. 0.],0.0,0.0,0.0,[0. 0. 0. 0. 0. 0. 0. 0. 0.],-1.9140625,-0.3046875,9.58203125,[0. 0. 0. 0. 0. 0. 0. 0. 0.]
1742664202511003270,1742664202,500382159,imu_link,-0.01556396484375,0.09844970703125,-0.0009765625,0.9949951171875,[0. 0. 0. 0. 0. 0. 0. 0. 0.],0.0,0.0,0.0,[0. 0. 0. 0. 0. 0. 0. 0. 0.],-1.9140625,-0.3046875,9.58203125,[0. 0. 0. 0. 0. 0. 0. 0. 0.]
1742664202534585690,1742664202,520634599,imu_link,-0.01556396484375,0.09844970703125,-0.0009765625,0.9949951171875,[0. 0. 0. 0. 0. 0. 0. 0. 0.],0.0,0.0,0.0,[0. 0. 0. 0. 0. 0. 0. 0. 0.],-1.9140625,-0.3046875,9.58203125,[0. 0. 0. 0. 0. 0. 0. 0. 0.]
1742664202545684693,1742664202,540314869,imu_link,-0.01556396484375,0.09844970703125,-0.0009765625,0.9949951171875,[0. 0. 0. 0. 0. 0. 0. 0. 0.],0.0,0.0,0.0,[0. 0. 0. 0. 0. 0. 0. 0. 0.],-1.9140625,-0.3046875,9.58203125,[0. 0. 0. 0. 0. 0. 0. 0. 0.]
1742664202577064673,1742664202,560398233,imu_link,-0.01556396484375,0.09844970703125,-0.0009765625,0.9949951171875,[0. 0. 0. 0. 0. 0. 0. 0. 0.],0.0,0.0,0.0,[0. 0. 0. 0. 0. 0. 0. 0. 0.],-1.9140625,-0.3046875,9.58203125,[0. 0. 0. 0. 0. 0. 0. 0. 0.]
1742664202582071588,1742664202,580286116,imu_link,-0.01556396484375,0.09844970703125,-0.0009765625,0.9949951171875,[0. 0. 0. 0. 0. 0. 0. 0. 0.],0.0,0.0,0.0,[0. 0. 0. 0. 0. 0. 0. 0. 0.],-1.9140625,-0.3046875,9.58203125,[0. 0. 0. 0. 0. 0. 0. 0. 0.]
1742664202610994703,1742664202,600394258,imu_link,-0.01556396484375,0.09844970703125,-0.0009765625,0.9949951171875,[0. 0. 0. 0. 0. 0. 0. 0. 0.],0.0,0.0,0.0,[0. 0. 0. 0. 0. 0. 0. 0. 0.],-1.9140625,-0.3046875,9.58203125,[0. 0. 0. 0. 0. 0. 0. 0. 0.]
1742664202629871191,1742664202,627065676,imu_link,-0.01556396484375,0.09844970703125,-0.0009765625,0.9949951171875,[0. 0. 0. 0. 0. 0. 0. 0. 0.],0.0,0.0,0.0,[0. 0. 0. 0. 0. 0. 0. 0. 0.],-1.9140625,-0.3046875,9.58203125,[0. 0. 0. 0. 0. 0. 0. 0. 0.]
1742664202646587779,1742664202,640348968,imu_link,-0.01556396484375,0.09844970703125,-0.0009765625,0.9949951171875,[0. 0. 0. 0. 0. 0. 0. 0. 0.],0.0,0.0,0.0,[0. 0. 0. 0. 0. 0. 0. 0. 0.],-1.9140625,-0.3046875,9.58203125,[0. 0. 0. 0. 0. 0. 0. 0. 0.]
1742664202677206569,1742664202,660328684,imu_link,-0.01556396484375,0.09844970703125,-0.0009765625,0.9949951171875,[0. 0. 0. 0. 0. 0. 0. 0. 0.],0.0,0.0,0.0,[0. 0. 0. 0. 0. 0. 0. 0. 0.],-1.9140625,-0.3046875,9.58203125,[0. 0. 0. 0. 0. 0. 0. 0. 0.]
1742664202682078669,1742664202,680279159,imu_link,-0.01556396484375,0.09844970703125,-0.0009765625,0.9949951171875,[0. 0. 0. 0. 0. 0. 0. 0. 0.],0.0,0.0,0.0,[0. 0. 0. 0. 0. 0. 0. 0. 0.],-1.9140625,-0.3046875,9.58203125,[0. 0. 0. 0. 0. 0. 0. 0. 0.]
1742664202707570895,1742664202,700586396,imu_link,-0.01556396484375,0.09844970703125,-0.0009765625,0.9949951171875,[0. 0. 0. 0. 0. 0. 0. 0. 0.],0.0,0.0,0.0,[0. 0. 0. 0. 0. 0. 0. 0. 0.],-1.9140625,-0.3046875,9.58203125,[0. 0. 0. 0. 0. 0. 0. 0. 0.]
1742664202734097516,1742664202,720426537,imu_link,-0.01556396484375,0.09844970703125,-0.0009765625,0.9949951171875,[0. 0. 0. 0. 0. 0. 0. 0. 0.],0.0,0.0,0.0,[0. 0. 0. 0. 0. 0. 0. 0. 0.],-1.9140625,-0.3046875,9.58203125,[0. 0. 0. 0. 0. 0. 0. 0. 0.]
1742664202750330046,1742664202,740418494,imu_link,-0.01556396484375,0.09844970703125,-0.0009765625,0.9949951171875,[0. 0. 0. 0. 0. 0. 0. 0. 0.],0.0,0.0,0.0,[0. 0. 0. 0. 0. 0. 0. 0. 0.],-1.9140625,-0.3046875,9.58203125,[0. 0. 0. 0. 0. 0. 0. 0. 0.]
1742664202771958493,1742664202,760292357,imu_link,-0.01556396484375,0.09844970703125,-0.0009765625,0.9949951171875,[0. 0. 0. 0. 0. 0. 0. 0. 0.],0.0,0.0,0.0,[0. 0. 0. 0. 0. 0. 0. 0. 0.],-1.9140625,-0.3046875,9.58203125,[0. 0. 0. 0. 0. 0. 0. 0. 0.]
1742664202787089387,1742664202,780389296,imu_link,-0.01556396484375,0.09844970703125,-0.0009765625,0.9949951171875,[0. 0. 0. 0. 0. 0. 0. 0. 0.],0.0,0.0,0.0,[0. 0. 0. 0. 0. 0. 0. 0. 0.],-1.9140625,-0.3046875,9.58203125,[0. 0. 0. 0. 0. 0. 0. 0. 0.]
1742664202807075103,1742664202,800349179,imu_link,-0.01556396484375,0.09844970703125,-0.0009765625,0.9949951171875,[0. 0. 0. 0. 0. 0. 0. 0. 0.],0.0,0.0,0.0,[0. 0. 0. 0. 0. 0. 0. 0. 0.],-1.9140625,-0.3046875,9.58203125,[0. 0. 0. 0. 0. 0. 0. 0. 0.]
1742664202826077332,1742664202,822398646,imu_link,-0.01556396484375,0.09844970703125,-0.0009765625,0.9949951171875,[0. 0. 0. 0. 0. 0. 0. 0. 0.],0.0,0.0,0.0,[0. 0. 0. 0. 0. 0. 0. 0. 0.],-1.9140625,-0.3046875,9.58203125,[0. 0. 0. 0. 0. 0. 0. 0. 0.]
1742664202850519424,1742664202,840371445,imu_link,-0.01556396484375,0.09844970703125,-0.0009765625,0.9949951171875,[0. 0. 0. 0. 0. 0. 0. 0. 0.],0.0,0.0,0.0,[0. 0. 0. 0. 0. 0. 0. 0. 0.],-1.9140625,-0.3046875,9.58203125,[0. 0. 0. 0. 0. 0. 0. 0. 0.]
1742664202871926055,1742664202,860297568,imu_link,-0.01556396484375,0.09844970703125,-0.0009765625,0.9949951171875,[0. 0. 0. 0. 0. 0. 0. 0. 0.],0.0,0.0,0.0,[0. 0. 0. 0. 0. 0. 0. 0. 0.],-1.9140625,-0.3046875,9.58203125,[0. 0. 0. 0. 0. 0. 0. 0. 0.]
1742664202882944483,1742664202,880367451,imu_link,-0.01556396484375,0.09844970703125,-0.0009765625,0.9949951171875,[0. 0. 0. 0. 0. 0. 0. 0. 0.],0.0,0.0,0.0,[0. 0. 0. 0. 0. 0. 0. 0. 0.],-1.9140625,-0.3046875,9.58203125,[0. 0. 0. 0. 0. 0. 0. 0. 0.]
1742664202910204848,1742664202,900366593,imu_link,-0.01556396484375,0.09844970703125,-0.0009765625,0.9949951171875,[0. 0. 0. 0. 0. 0. 0. 0. 0.],0.0,0.0,0.0,[0. 0. 0. 0. 0. 0. 0. 0. 0.],-1.9140625,-0.3046875,9.58203125,[0. 0. 0. 0. 0. 0. 0. 0. 0.]
1742664202933329729,1742664202,920435735,imu_link,-0.01556396484375,0.09844970703125,-0.0009765625,0.9949951171875,[0. 0. 0. 0. 0. 0. 0. 0. 0.],0.0,0.0,0.0,[0. 0. 0. 0. 0. 0. 0. 0. 0.],-1.9140625,-0.3046875,9.58203125,[0. 0. 0. 0. 0. 0. 0. 0. 0.]
1742664202947597952,1742664202,940276562,imu_link,-0.01556396484375,0.09844970703125,-0.0009765625,0.9949951171875,[0. 0. 0. 0. 0. 0. 0. 0. 0.],0.0,0.0,0.0,[0. 0. 0. 0. 0. 0. 0. 0. 0.],-1.9140625,-0.3046875,9.58203125,[0. 0. 0. 0. 0. 0. 0. 0. 0.]
1742664202975511062,1742664202,960433168,imu_link,-0.01556396484375,0.09844970703125,-0.0009765625,0.9949951171875,[0. 0. 0. 0. 0. 0. 0. 0. 0.],0.0,0.0,0.0,[0. 0. 0. 0. 0. 0. 0. 0. 0.],-1.9140625,-0.3046875,9.58203125,[0. 0. 0. 0. 0. 0. 0. 0. 0.]
1742664202985511522,1742664202,981703576,imu_link,-0.01556396484375,0.09844970703125,-0.0009765625,0.9949951171875,[0. 0. 0. 0. 0. 0. 0. 0. 0.],0.0,0.0,0.0,[0. 0. 0. 0. 0. 0. 0. 0. 0.],-1.9140625,-0.3046875,9.58203125,[0. 0. 0. 0. 0. 0. 0. 0. 0.]
1742664203022529401,1742664203,345766,imu_link,-0.01556396484375,0.09844970703125,-0.0009765625,0.9949951171875,[0. 0. 0. 0. 0. 0. 0. 0. 0.],0.0,0.0,0.0,[0. 0. 0. 0. 0. 0. 0. 0. 0.],-1.9140625,-0.3046875,9.58203125,[0. 0. 0. 0. 0. 0. 0. 0. 0.]
1742664203028056097,1742664203,25241323,imu_link,-0.01556396484375,0.09844970703125,-0.0009765625,0.9949951171875,[0. 0. 0. 0. 0. 0. 0. 0. 0.],0.0,0.0,0.0,[0. 0. 0. 0. 0. 0. 0. 0. 0.],-1.9140625,-0.3046875,9.58203125,[0. 0. 0. 0. 0. 0. 0. 0. 0.]
1742664203047717163,1742664203,40294994,imu_link,-0.01556396484375,0.09844970703125,-0.0009765625,0.9949951171875,[0. 0. 0. 0. 0. 0. 0. 0. 0.],0.0,0.0,0.0,[0. 0. 0. 0. 0. 0. 0. 0. 0.],-1.9140625,-0.3046875,9.54296875,[0. 0. 0. 0. 0. 0. 0. 0. 0.]
1742664203074025301,1742664203,60527712,imu_link,-0.01556396484375,0.09844970703125,-0.0009765625,0.9949951171875,[0. 0. 0. 0. 0. 0. 0. 0. 0.],0.0,0.0,0.0,[0. 0. 0. 0. 0. 0. 0. 0. 0.],-1.9140625,-0.3046875,9.54296875,[0. 0. 0. 0. 0. 0. 0. 0. 0.]
1742664203082717013,1742664203,80287278,imu_link,-0.01556396484375,0.09844970703125,-0.0009765625,0.9949951171875,[0. 0. 0. 0. 0. 0. 0. 0. 0.],0.0,0.0,0.0,[0. 0. 0. 0. 0. 0. 0. 0. 0.],-1.9140625,-0.3046875,9.58203125,[0. 0. 0. 0. 0. 0. 0. 0. 0.]
1742664203120633750,1742664203,100345662,imu_link,-0.01556396484375,0.09844970703125,-0.0009765625,0.9949951171875,[0. 0. 0. 0. 0. 0. 0. 0. 0.],0.0,0.0,0.0,[0. 0. 0. 0. 0. 0. 0. 0. 0.],-1.9140625,-0.3046875,9.58203125,[0. 0. 0. 0. 0. 0. 0. 0. 0.]
1742664203130269652,1742664203,122869928,imu_link,-0.01556396484375,0.09844970703125,-0.0009765625,0.9949951171875,[0. 0. 0. 0. 0. 0. 0. 0. 0.],0.0,0.0,0.0,[0. 0. 0. 0. 0. 0. 0. 0. 0.],-1.9140625,-0.3046875,9.58203125,[0. 0. 0. 0. 0. 0. 0. 0. 0.]
1742664203147721336,1742664203,140355261,imu_link,-0.01556396484375,0.09844970703125,-0.0009765625,0.9949951171875,[0. 0. 0. 0. 0. 0. 0. 0. 0.],0.0,0.0,0.0,[0. 0. 0. 0. 0. 0. 0. 0. 0.],-1.9140625,-0.3046875,9.58203125,[0. 0. 0. 0. 0. 0. 0. 0. 0.]
1742664203174914090,1742664203,160568589,imu_link,-0.01556396484375,0.09844970703125,-0.0009765625,0.9949951171875,[0. 0. 0. 0. 0. 0. 0. 0. 0.],0.0,0.0,0.0,[0. 0. 0. 0. 0. 0. 0. 0. 0.],-1.9140625,-0.3046875,9.58203125,[0. 0. 0. 0. 0. 0. 0. 0. 0.]
1742664203183341783,1742664203,180301581,imu_link,-0.01556396484375,0.09844970703125,-0.0009765625,0.9949951171875,[0. 0. 0. 0. 0. 0. 0. 0. 0.],0.0,0.0,0.0,[0. 0. 0. 0. 0. 0. 0. 0. 0.],-1.9140625,-0.3046875,9.58203125,[0. 0. 0. 0. 0. 0. 0. 0. 0.]
1742664203224936519,1742664203,200341983,imu_link,-0.01556396484375,0.09844970703125,-0.0009765625,0.9949951171875,[0. 0. 0. 0. 0. 0. 0. 0. 0.],0.0,0.0,0.0,[0. 0. 0. 0. 0. 0. 0. 0. 0.],-1.9140625,-0.3046875,9.58203125,[0. 0. 0. 0. 0. 0. 0. 0. 0.]
1742664203229487525,1742664203,227663052,imu_link,-0.01556396484375,0.09844970703125,-0.0009765625,0.9949951171875,[0. 0. 0. 0. 0. 0. 0. 0. 0.],0.0,0.0,0.0,[0. 0. 0. 0. 0. 0. 0. 0. 0.],-1.9140625,-0.3046875,9.58203125,[0. 0. 0. 0. 0. 0. 0. 0. 0.]
1742664203248598236,1742664203,240461045,imu_link,-0.01556396484375,0.09844970703125,-0.0009765625,0.9949951171875,[0. 0. 0. 0. 0. 0. 0. 0. 0.],0.0,0.0,0.0,[0. 0. 0. 0. 0. 0. 0. 0. 0.],-1.9140625,-0.3046875,9.58203125,[0. 0. 0. 0. 0. 0. 0. 0. 0.]
1742664203275100079,1742664203,260633392,imu_link,-0.01556396484375,0.09844970703125,-0.0009765625,0.9949951171875,[0. 0. 0. 0. 0. 0. 0. 0. 0.],0.0,0.0,0.0,[0. 0. 0. 0. 0. 0. 0. 0. 0.],-1.9140625,-0.3046875,9.58203125,[0. 0. 0. 0. 0. 0. 0. 0. 0.]
1742664203282060208,1742664203,280280551,imu_link,-0.01556396484375,0.09844970703125,-0.0009765625,0.9949951171875,[0. 0. 0. 0. 0. 0. 0. 0. 0.],0.0,0.0,0.0,[0. 0. 0. 0. 0. 0. 0. 0. 0.],-1.9140625,-0.3046875,9.58203125,[0. 0. 0. 0. 0. 0. 0. 0. 0.]
1742664203308507884,1742664203,300319878,imu_link,-0.01556396484375,0.09844970703125,-0.0009765625,0.9949951171875,[0. 0. 0. 0. 0. 0. 0. 0. 0.],0.0,0.0,0.0,[0. 0. 0. 0. 0. 0. 0. 0. 0.],-1.9140625,-0.3046875,9.58203125,[0. 0. 0. 0. 0. 0. 0. 0. 0.]
1742664203335431951,1742664203,320405299,imu_link,-0.01556396484375,0.09844970703125,-0.0009765625,0.9949951171875,[0. 0. 0. 0. 0. 0. 0. 0. 0.],0.0,0.0,0.0,[0. 0. 0. 0. 0. 0. 0. 0. 0.],-1.9140625,-0.3046875,9.58203125,[0. 0. 0. 0. 0. 0. 0. 0. 0.]
1742664203351466073,1742664203,340290792,imu_link,-0.01556396484375,0.09844970703125,-0.0009765625,0.9949951171875,[0. 0. 0. 0. 0. 0. 0. 0. 0.],0.0,0.0,0.0,[0. 0. 0. 0. 0. 0. 0. 0. 0.],-1.9140625,-0.3046875,9.58203125,[0. 0. 0. 0. 0. 0. 0. 0. 0.]
1742664203373234206,1742664203,360456305,imu_link,-0.01556396484375,0.09844970703125,-0.0009765625,0.9949951171875,[0. 0. 0. 0. 0. 0. 0. 0. 0.],0.0,0.0,0.0,[0. 0. 0. 0. 0. 0. 0. 0. 0.],-1.9140625,-0.3046875,9.58203125,[0. 0. 0. 0. 0. 0. 0. 0. 0.]
1742664203388657898,1742664203,380473207,imu_link,-0.01556396484375,0.09844970703125,-0.0009765625,0.9949951171875,[0. 0. 0. 0. 0. 0. 0. 0. 0.],0.0,0.0,0.0,[0. 0. 0. 0. 0. 0. 0. 0. 0.],-1.9140625,-0.3046875,9.58203125,[0. 0. 0. 0. 0. 0. 0. 0. 0.]
1742664203420868659,1742664203,400316737,imu_link,-0.01556396484375,0.09844970703125,-0.0009765625,0.9949951171875,[0. 0. 0. 0. 0. 0. 0. 0. 0.],0.0,0.0,0.0,[0. 0. 0. 0. 0. 0. 0. 0. 0.],-1.9140625,-0.3046875,9.58203125,[0. 0. 0. 0. 0. 0. 0. 0. 0.]
1742664203426929117,1742664203,423524340,imu_link,-0.01556396484375,0.09844970703125,-0.0009765625,0.9949951171875,[0. 0. 0. 0. 0. 0. 0. 0. 0.],0.0,0.0,0.0,[0. 0. 0. 0. 0. 0. 0. 0. 0.],-1.9140625,-0.3046875,9.58203125,[0. 0. 0. 0. 0. 0. 0. 0. 0.]
1742664203450199258,1742664203,440297039,imu_link,-0.01556396484375,0.09844970703125,-0.0009765625,0.9949951171875,[0. 0. 0. 0. 0. 0. 0. 0. 0.],0.0,0.0,0.0,[0. 0. 0. 0. 0. 0. 0. 0. 0.],-1.9140625,-0.3046875,9.58203125,[0. 0. 0. 0. 0. 0. 0. 0. 0.]
1742664203477675106,1742664203,460412163,imu_link,-0.01556396484375,0.09844970703125,-0.0009765625,0.9949951171875,[0. 0. 0. 0. 0. 0. 0. 0. 0.],0.0,0.0,0.0,[0. 0. 0. 0. 0. 0. 0. 0. 0.],-1.9140625,-0.3046875,9.58203125,[0. 0. 0. 0. 0. 0. 0. 0. 0.]
1742664203483731304,1742664203,480271082,imu_link,-0.01556396484375,0.09844970703125,-0.0009765625,0.9949951171875,[0. 0. 0. 0. 0. 0. 0. 0. 0.],0.0,0.0,0.0,[0. 0. 0. 0. 0. 0. 0. 0. 0.],-1.9140625,-0.3046875,9.58203125,[0. 0. 0. 0. 0. 0. 0. 0. 0.]
1742664203520536516,1742664203,500351151,imu_link,-0.01556396484375,0.09844970703125,-0.0009765625,0.9949951171875,[0. 0. 0. 0. 0. 0. 0. 0. 0.],0.0,0.0,0.0,[0. 0. 0. 0. 0. 0. 0. 0. 0.],-1.9140625,-0.3046875,9.58203125,[0. 0. 0. 0. 0. 0. 0. 0. 0.]
1742664203526966976,1742664203,523511013,imu_link,-0.01556396484375,0.09844970703125,-0.0009765625,0.9949951171875,[0. 0. 0. 0. 0. 0. 0. 0. 0.],0.0,0.0,0.0,[0. 0. 0. 0. 0. 0. 0. 0. 0.],-1.9140625,-0.3046875,9.58203125,[0. 0. 0. 0. 0. 0. 0. 0. 0.]
1742664203551300937,1742664203,540354676,imu_link,-0.01556396484375,0.09844970703125,-0.0009765625,0.9949951171875,[0. 0. 0. 0. 0. 0. 0. 0. 0.],0.0,0.0,0.0,[0. 0. 0. 0. 0. 0. 0. 0. 0.],-1.9140625,-0.3046875,9.58203125,[0. 0. 0. 0. 0. 0. 0. 0. 0.]
1742664203577996373,1742664203,560512170,imu_link,-0.01556396484375,0.09844970703125,-0.0009765625,0.9949951171875,[0. 0. 0. 0. 0. 0. 0. 0. 0.],0.0,0.0,0.0,[0. 0. 0. 0. 0. 0. 0. 0. 0.],-1.87890625,-0.3046875,9.578125,[0. 0. 0. 0. 0. 0. 0. 0. 0.]
1742664203582765880,1742664203,580288330,imu_link,-0.01556396484375,0.09844970703125,-0.0009765625,0.9949951171875,[0. 0. 0. 0. 0. 0. 0. 0. 0.],0.0,0.0,0.0,[0. 0. 0. 0. 0. 0. 0. 0. 0.],-1.87890625,-0.3046875,9.578125,[0. 0. 0. 0. 0. 0. 0. 0. 0.]
1742664203620631745,1742664203,600392972,imu_link,-0.01556396484375,0.09844970703125,-0.0009765625,0.9949951171875,[0. 0. 0. 0. 0. 0. 0. 0. 0.],0.0,0.0,0.0,[0. 0. 0. 0. 0. 0. 0. 0. 0.],-1.9140625,-0.3046875,9.58203125,[0. 0. 0. 0. 0. 0. 0. 0. 0.]
1742664203626400053,1742664203,622984239,imu_link,-0.01556396484375,0.09844970703125,-0.0009765625,0.9949951171875,[0. 0. 0. 0. 0. 0. 0. 0. 0.],0.0,0.0,0.0,[0. 0. 0. 0. 0. 0. 0. 0. 0.],-1.9140625,-0.3046875,9.58203125,[0. 0. 0. 0. 0. 0. 0. 0. 0.]
1742664203651252702,1742664203,640379127,imu_link,-0.01556396484375,0.09844970703125,-0.0009765625,0.9949951171875,[0. 0. 0. 0. 0. 0. 0. 0. 0.],0.0,0.0,0.0,[0. 0. 0. 0. 0. 0. 0. 0. 0.],-1.9140625,-0.3046875,9.58203125,[0. 0. 0. 0. 0. 0. 0. 0. 0.]
1742664203674775474,1742664203,660405417,imu_link,-0.01556396484375,0.09844970703125,-0.0009765625,0.9949951171875,[0. 0. 0. 0. 0. 0. 0. 0. 0.],0.0,0.0,0.0,[0. 0. 0. 0. 0. 0. 0. 0. 0.],-1.9140625,-0.3046875,9.58203125,[0. 0. 0. 0. 0. 0. 0. 0. 0.]
1742664203683689669,1742664203,680304725,imu_link,-0.01556396484375,0.09844970703125,-0.0009765625,0.9949951171875,[0. 0. 0. 0. 0. 0. 0. 0. 0.],0.0,0.0,0.0,[0. 0. 0. 0. 0. 0. 0. 0. 0.],-1.9140625,-0.3046875,9.58203125,[0. 0. 0. 0. 0. 0. 0. 0. 0.]
1742664203722159223,1742664203,700528480,imu_link,-0.01556396484375,0.09844970703125,-0.0009765625,0.9949951171875,[0. 0. 0. 0. 0. 0. 0. 0. 0.],0.0,0.0,0.0,[0. 0. 0. 0. 0. 0. 0. 0. 0.],-1.9140625,-0.3046875,9.58203125,[0. 0. 0. 0. 0. 0. 0. 0. 0.]
1742664203731986867,1742664203,728896277,imu_link,-0.01556396484375,0.09844970703125,-0.0009765625,0.9949951171875,[0. 0. 0. 0. 0. 0. 0. 0. 0.],0.0,0.0,0.0,[0. 0. 0. 0. 0. 0. 0. 0. 0.],-1.9140625,-0.3046875,9.58203125,[0. 0. 0. 0. 0. 0. 0. 0. 0.]
1742664203747567801,1742664203,740326652,imu_link,-0.01556396484375,0.09844970703125,-0.0009765625,0.9949951171875,[0. 0. 0. 0. 0. 0. 0. 0. 0.],0.0,0.0,0.0,[0. 0. 0. 0. 0. 0. 0. 0. 0.],-1.9140625,-0.3046875,9.58203125,[0. 0. 0. 0. 0. 0. 0. 0. 0.]
1742664203775011260,1742664203,760614814,imu_link,-0.01556396484375,0.09844970703125,-0.0009765625,0.9949951171875,[0. 0. 0. 0. 0. 0. 0. 0. 0.],0.0,0.0,0.0,[0. 0. 0. 0. 0. 0. 0. 0. 0.],-1.9140625,-0.3046875,9.58203125,[0. 0. 0. 0. 0. 0. 0. 0. 0.]
1742664203783693416,1742664203,780302713,imu_link,-0.01556396484375,0.09844970703125,-0.0009765625,0.9949951171875,[0. 0. 0. 0. 0. 0. 0. 0. 0.],0.0,0.0,0.0,[0. 0. 0. 0. 0. 0. 0. 0. 0.],-1.9140625,-0.3046875,9.58203125,[0. 0. 0. 0. 0. 0. 0. 0. 0.]
1742664203825582414,1742664203,800347744,imu_link,-0.01556396484375,0.09844970703125,-0.0009765625,0.9949951171875,[0. 0. 0. 0. 0. 0. 0. 0. 0.],0.0,0.0,0.0,[0. 0. 0. 0. 0. 0. 0. 0. 0.],-1.9140625,-0.3046875,9.58203125,[0. 0. 0. 0. 0. 0. 0. 0. 0.]
1742664203830653755,1742664203,828249947,imu_link,-0.01556396484375,0.09844970703125,-0.0009765625,0.9949951171875,[0. 0. 0. 0. 0. 0. 0. 0. 0.],0.0,0.0,0.0,[0. 0. 0. 0. 0. 0. 0. 0. 0.],-1.9140625,-0.3046875,9.58203125,[0. 0. 0. 0. 0. 0. 0. 0. 0.]
1742664203848397108,1742664203,840326640,imu_link,-0.01556396484375,0.09844970703125,-0.0009765625,0.9949951171875,[0. 0. 0. 0. 0. 0. 0. 0. 0.],0.0,0.0,0.0,[0. 0. 0. 0. 0. 0. 0. 0. 0.],-1.9140625,-0.3046875,9.58203125,[0. 0. 0. 0. 0. 0. 0. 0. 0.]
1742664203874708283,1742664203,860332504,imu_link,-0.01556396484375,0.09844970703125,-0.0009765625,0.9949951171875,[0. 0. 0. 0. 0. 0. 0. 0. 0.],0.0,0.0,0.0,[0. 0. 0. 0. 0. 0. 0. 0. 0.],-1.87890625,-0.3046875,9.578125,[0. 0. 0. 0. 0. 0. 0. 0. 0.]
1742664203887210701,1742664203,880397776,imu_link,-0.01556396484375,0.09844970703125,-0.0009765625,0.9949951171875,[0. 0. 0. 0. 0. 0. 0. 0. 0.],0.0,0.0,0.0,[0. 0. 0. 0. 0. 0. 0. 0. 0.],-1.87890625,-0.3046875,9.578125,[0. 0. 0. 0. 0. 0. 0. 0. 0.]
1742664203907693234,1742664203,900405899,imu_link,-0.01556396484375,0.09844970703125,-0.0009765625,0.9949951171875,[0. 0. 0. 0. 0. 0. 0. 0. 0.],0.0,0.0,0.0,[0. 0. 0. 0. 0. 0. 0. 0. 0.],-1.9140625,-0.3046875,9.58203125,[0. 0. 0. 0. 0. 0. 0. 0. 0.]
1742664203935498880,1742664203,920391153,imu_link,-0.01556396484375,0.09844970703125,-0.0009765625,0.9949951171875,[0. 0. 0. 0. 0. 0. 0. 0. 0.],0.0,0.0,0.0,[0. 0. 0. 0. 0. 0. 0. 0. 0.],-1.9140625,-0.3046875,9.58203125,[0. 0. 0. 0. 0. 0. 0. 0. 0.]
1742664203953259992,1742664203,940417128,imu_link,-0.01556396484375,0.09844970703125,-0.0009765625,0.9949951171875,[0. 0. 0. 0. 0. 0. 0. 0. 0.],0.0,0.0,0.0,[0. 0. 0. 0. 0. 0. 0. 0. 0.],-1.9140625,-0.3046875,9.58203125,[0. 0. 0. 0. 0. 0. 0. 0. 0.]
1742664203973670025,1742664203,960296751,imu_link,-0.01556396484375,0.09844970703125,-0.0009765625,0.9949951171875,[0. 0. 0. 0. 0. 0. 0. 0. 0.],0.0,0.0,0.0,[0. 0. 0. 0. 0. 0. 0. 0. 0.],-1.9140625,-0.3046875,9.58203125,[0. 0. 0. 0. 0. 0. 0. 0. 0.]
1742664203987579913,1742664203,980293467,imu_link,-0.01556396484375,0.09844970703125,-0.0009765625,0.9949951171875,[0. 0. 0. 0. 0. 0. 0. 0. 0.],0.0,0.0,0.0,[0. 0. 0. 0. 0. 0. 0. 0. 0.],-1.87890625,-0.3046875,9.578125,[0. 0. 0. 0. 0. 0. 0. 0. 0.]
1742664204004018592,1742664204,537759,imu_link,-0.01556396484375,0.09844970703125,-0.0009765625,0.9949951171875,[0. 0. 0. 0. 0. 0. 0. 0. 0.],0.0,0.0,0.0,[0. 0. 0. 0. 0. 0. 0. 0. 0.],-1.87890625,-0.3046875,9.578125,[0. 0. 0. 0. 0. 0. 0. 0. 0.]
1742664204034808420,1742664204,20723253,imu_link,-0.01556396484375,0.098388671875,-0.0009765625,0.9949951171875,[0. 0. 0. 0. 0. 0. 0. 0. 0.],0.0,0.0,0.0,[0. 0. 0. 0. 0. 0. 0. 0. 0.],-1.9140625,-0.3046875,9.58203125,[0. 0. 0. 0. 0. 0. 0. 0. 0.]
1742664204052910052,1742664204,40314245,imu_link,-0.01556396484375,0.098388671875,-0.0009765625,0.9949951171875,[0. 0. 0. 0. 0. 0. 0. 0. 0.],0.0,0.0,0.0,[0. 0. 0. 0. 0. 0. 0. 0. 0.],-1.9140625,-0.3046875,9.58203125,[0. 0. 0. 0. 0. 0. 0. 0. 0.]
1742664204077467681,1742664204,60394480,imu_link,-0.01556396484375,0.098388671875,-0.0009765625,0.99505615234375,[0. 0. 0. 0. 0. 0. 0. 0. 0.],0.0,0.0,0.0,[0. 0. 0. 0. 0. 0. 0. 0. 0.],-1.9140625,-0.3046875,9.54296875,[0. 0. 0. 0. 0. 0. 0. 0. 0.]
1742664204083661843,1742664204,80277214,imu_link,-0.01556396484375,0.098388671875,-0.0009765625,0.99505615234375,[0. 0. 0. 0. 0. 0. 0. 0. 0.],0.0,0.0,0.0,[0. 0. 0. 0. 0. 0. 0. 0. 0.],-1.9140625,-0.3046875,9.54296875,[0. 0. 0. 0. 0. 0. 0. 0. 0.]
1742664204120317424,1742664204,100653673,imu_link,-0.01556396484375,0.098388671875,-0.0009765625,0.99505615234375,[0. 0. 0. 0. 0. 0. 0. 0. 0.],0.0,0.0,0.0,[0. 0. 0. 0. 0. 0. 0. 0. 0.],-1.87890625,-0.3046875,9.61328125,[0. 0. 0. 0. 0. 0. 0. 0. 0.]
1742664204126410660,1742664204,123017531,imu_link,-0.01556396484375,0.098388671875,-0.0009765625,0.99505615234375,[0. 0. 0. 0. 0. 0. 0. 0. 0.],0.0,0.0,0.0,[0. 0. 0. 0. 0. 0. 0. 0. 0.],-1.87890625,-0.3046875,9.61328125,[0. 0. 0. 0. 0. 0. 0. 0. 0.]
1742664204153097874,1742664204,140403289,imu_link,-0.01556396484375,0.098388671875,-0.0009765625,0.99505615234375,[0. 0. 0. 0. 0. 0. 0. 0. 0.],0.0,0.0,0.0,[0. 0. 0. 0. 0. 0. 0. 0. 0.],-1.9140625,-0.3046875,9.58203125,[0. 0. 0. 0. 0. 0. 0. 0. 0.]
1742664204175037767,1742664204,160305190,imu_link,-0.01556396484375,0.09832763671875,-0.0009765625,0.99505615234375,[0. 0. 0. 0. 0. 0. 0. 0. 0.],0.0,0.0,0.0,[0. 0. 0. 0. 0. 0. 0. 0. 0.],-1.9140625,-0.3046875,9.58203125,[0. 0. 0. 0. 0. 0. 0. 0. 0.]
1742664204183676498,1742664204,180298980,imu_link,-0.01556396484375,0.09832763671875,-0.0009765625,0.99505615234375,[0. 0. 0. 0. 0. 0. 0. 0. 0.],0.0,0.0,0.0,[0. 0. 0. 0. 0. 0. 0. 0. 0.],-1.9140625,-0.3046875,9.58203125,[0. 0. 0. 0. 0. 0. 0. 0. 0.]
1742664204221371233,1742664204,200555049,imu_link,-0.01556396484375,0.09832763671875,-0.0009765625,0.99505615234375,[0. 0. 0. 0. 0. 0. 0. 0. 0.],0.0,0.0,0.0,[0. 0. 0. 0. 0. 0. 0. 0. 0.],-1.9140625,-0.3046875,9.58203125,[0. 0. 0. 0. 0. 0. 0. 0. 0.]
1742664204226838706,1742664204,224032654,imu_link,-0.01556396484375,0.09832763671875,-0.0009765625,0.99505615234375,[0. 0. 0. 0. 0. 0. 0. 0. 0.],0.0,0.0,0.0,[0. 0. 0. 0. 0. 0. 0. 0. 0.],-1.9140625,-0.3046875,9.58203125,[0. 0. 0. 0. 0. 0. 0. 0. 0.]
1742664204252718101,1742664204,240346555,imu_link,-0.01556396484375,0.09832763671875,-0.0009765625,0.99505615234375,[0. 0. 0. 0. 0. 0. 0. 0. 0.],0.0,0.0,0.0,[0. 0. 0. 0. 0. 0. 0. 0. 0.],-1.9140625,-0.3046875,9.58203125,[0. 0. 0. 0. 0. 0. 0. 0. 0.]
1742664204275170386,1742664204,260303530,imu_link,-0.01556396484375,0.09832763671875,-0.0009765625,0.99505615234375,[0. 0. 0. 0. 0. 0. 0. 0. 0.],0.0,0.0,0.0,[0. 0. 0. 0. 0. 0. 0. 0. 0.],-1.9140625,-0.3046875,9.58203125,[0. 0. 0. 0. 0. 0. 0. 0. 0.]
1742664204283660949,1742664204,280286801,imu_link,-0.01556396484375,0.09832763671875,-0.0009765625,0.99505615234375,[0. 0. 0. 0. 0. 0. 0. 0. 0.],0.0,0.0,0.0,[0. 0. 0. 0. 0. 0. 0. 0. 0.],-1.9140625,-0.3046875,9.58203125,[0. 0. 0. 0. 0. 0. 0. 0. 0.]
1742664204322738654,1742664204,300423611,imu_link,-0.01556396484375,0.0982666015625,-0.0009765625,0.99505615234375,[0. 0. 0. 0. 0. 0. 0. 0. 0.],0.0,0.0,0.0,[0. 0. 0. 0. 0. 0. 0. 0. 0.],-1.9140625,-0.3046875,9.58203125,[0. 0. 0. 0. 0. 0. 0. 0. 0.]
1742664204332843299,1742664204,329494060,imu_link,-0.01556396484375,0.0982666015625,-0.0009765625,0.99505615234375,[0. 0. 0. 0. 0. 0. 0. 0. 0.],0.0,0.0,0.0,[0. 0. 0. 0. 0. 0. 0. 0. 0.],-1.9140625,-0.3046875,9.58203125,[0. 0. 0. 0. 0. 0. 0. 0. 0.]
1742664204346935410,1742664204,340284024,imu_link,-0.01556396484375,0.0982666015625,-0.0009765625,0.99505615234375,[0. 0. 0. 0. 0. 0. 0. 0. 0.],0.0,0.0,0.0,[0. 0. 0. 0. 0. 0. 0. 0. 0.],-1.9140625,-0.3046875,9.58203125,[0. 0. 0. 0. 0. 0. 0. 0. 0.]
1742664204374464703,1742664204,360373462,imu_link,-0.01556396484375,0.0982666015625,-0.0009765625,0.99505615234375,[0. 0. 0. 0. 0. 0. 0. 0. 0.],0.0,0.0,0.0,[0. 0. 0. 0. 0. 0. 0. 0. 0.],-1.9140625,-0.3046875,9.58203125,[0. 0. 0. 0. 0. 0. 0. 0. 0.]
1742664204383913549,1742664204,380388475,imu_link,-0.01556396484375,0.0982666015625,-0.0009765625,0.99505615234375,[0. 0. 0. 0. 0. 0. 0. 0. 0.],0.0,0.0,0.0,[0. 0. 0. 0. 0. 0. 0. 0. 0.],-1.9140625,-0.3046875,9.58203125,[0. 0. 0. 0. 0. 0. 0. 0. 0.]
1742664204424546466,1742664204,400363339,imu_link,-0.01556396484375,0.0982666015625,-0.0009765625,0.99505615234375,[0. 0. 0. 0. 0. 0. 0. 0. 0.],0.0,0.0,0.0,[0. 0. 0. 0. 0. 0. 0. 0. 0.],-1.9140625,-0.3046875,9.58203125,[0. 0. 0. 0. 0. 0. 0. 0. 0.]
1742664204428766970,1742664204,426765144,imu_link,-0.01556396484375,0.0982666015625,-0.0009765625,0.99505615234375,[0. 0. 0. 0. 0. 0. 0. 0. 0.],0.0,0.0,0.0,[0. 0. 0. 0. 0. 0. 0. 0. 0.],-1.9140625,-0.3046875,9.58203125,[0. 0. 0. 0. 0. 0. 0. 0. 0.]
1742664204446916861,1742664204,440348993,imu_link,-0.01556396484375,0.0982666015625,-0.0009765625,0.99505615234375,[0. 0. 0. 0. 0. 0. 0. 0. 0.],0.0,0.0,0.0,[0. 0. 0. 0. 0. 0. 0. 0. 0.],-1.9140625,-0.3046875,9.58203125,[0. 0. 0. 0. 0. 0. 0. 0. 0.]
1742664204474880841,1742664204,460392747,imu_link,-0.01556396484375,0.0982666015625,-0.0009765625,0.99505615234375,[0. 0. 0. 0. 0. 0. 0. 0. 0.],0.0,0.0,0.0,[0. 0. 0. 0. 0. 0. 0. 0. 0.],-1.9140625,-0.3046875,9.58203125,[0. 0. 0. 0. 0. 0. 0. 0. 0.]
1742664204487475185,1742664204,480290666,imu_link,-0.01556396484375,0.0982666015625,-0.0009765625,0.99505615234375,[0. 0. 0. 0. 0. 0. 0. 0. 0.],0.0,0.0,0.0,[0. 0. 0. 0. 0. 0. 0. 0. 0.],-1.9140625,-0.3046875,9.58203125,[0. 0. 0. 0. 0. 0. 0. 0. 0.]
1742664204504098199,1742664204,500603736,imu_link,-0.01556396484375,0.0982666015625,-0.0009765625,0.99505615234375,[0. 0. 0. 0. 0. 0. 0. 0. 0.],0.0,0.0,0.0,[0. 0. 0. 0. 0. 0. 0. 0. 0.],-1.9140625,-0.3046875,9.58203125,[0. 0. 0. 0. 0. 0. 0. 0. 0.]
1742664204534915360,1742664204,520383210,imu_link,-0.01556396484375,0.0982666015625,-0.0009765625,0.99505615234375,[0. 0. 0. 0. 0. 0. 0. 0. 0.],0.0,0.0,0.0,[0. 0. 0. 0. 0. 0. 0. 0. 0.],-1.9140625,-0.3046875,9.58203125,[0. 0. 0. 0. 0. 0. 0. 0. 0.]
1742664204552252007,1742664204,540320018,imu_link,-0.01556396484375,0.0982666015625,-0.0009765625,0.99505615234375,[0. 0. 0. 0. 0. 0. 0. 0. 0.],0.0,0.0,0.0,[0. 0. 0. 0. 0. 0. 0. 0. 0.],-1.9140625,-0.3046875,9.58203125,[0. 0. 0. 0. 0. 0. 0. 0. 0.]
1742664204573913954,1742664204,560465328,imu_link,-0.01556396484375,0.0982666015625,-0.0009765625,0.99505615234375,[0. 0. 0. 0. 0. 0. 0. 0. 0.],0.0,0.0,0.0,[0. 0. 0. 0. 0. 0. 0. 0. 0.],-1.9140625,-0.3046875,9.58203125,[0. 0. 0. 0. 0. 0. 0. 0. 0.]
1742664204586905541,1742664204,580334339,imu_link,-0.01556396484375,0.0982666015625,-0.0009765625,0.99505615234375,[0. 0. 0. 0. 0. 0. 0. 0. 0.],0.0,0.0,0.0,[0. 0. 0. 0. 0. 0. 0. 0. 0.],-1.9140625,-0.3046875,9.58203125,[0. 0. 0. 0. 0. 0. 0. 0. 0.]
1742664204603924371,1742664204,600445686,imu_link,-0.01556396484375,0.0982666015625,-0.0009765625,0.99505615234375,[0. 0. 0. 0. 0. 0. 0. 0. 0.],0.0,0.0,0.0,[0. 0. 0. 0. 0. 0. 0. 0. 0.],-1.9140625,-0.3046875,9.58203125,[0. 0. 0. 0. 0. 0. 0. 0. 0.]
1742664204634658865,1742664204,620360513,imu_link,-0.01556396484375,0.0982666015625,-0.0009765625,0.99505615234375,[0. 0. 0. 0. 0. 0. 0. 0. 0.],0.0,0.0,0.0,[0. 0. 0. 0. 0. 0. 0. 0. 0.],-1.9140625,-0.3046875,9.58203125,[0. 0. 0. 0. 0. 0. 0. 0. 0.]
1742664204652023642,1742664204,640291284,imu_link,-0.01556396484375,0.0982666015625,-0.0009765625,0.99505615234375,[0. 0. 0. 0. 0. 0. 0. 0. 0.],0.0,0.0,0.0,[0. 0. 0. 0. 0. 0. 0. 0. 0.],-1.9140625,-0.3046875,9.58203125,[0. 0. 0. 0. 0. 0. 0. 0. 0.]
1742664204676809068,1742664204,660326889,imu_link,-0.01556396484375,0.09832763671875,-0.0009765625,0.99505615234375,[0. 0. 0. 0. 0. 0. 0. 0. 0.],0.0,0.0,0.0,[0. 0. 0. 0. 0. 0. 0. 0. 0.],-1.9140625,-0.3046875,9.58203125,[0. 0. 0. 0. 0. 0. 0. 0. 0.]
1742664204683661623,1742664204,680297364,imu_link,-0.01556396484375,0.09832763671875,-0.0009765625,0.99505615234375,[0. 0. 0. 0. 0. 0. 0. 0. 0.],0.0,0.0,0.0,[0. 0. 0. 0. 0. 0. 0. 0. 0.],-1.9140625,-0.3046875,9.58203125,[0. 0. 0. 0. 0. 0. 0. 0. 0.]
1742664204720894429,1742664204,700624415,imu_link,-0.01556396484375,0.09832763671875,-0.0009765625,0.99505615234375,[0. 0. 0. 0. 0. 0. 0. 0. 0.],0.0,0.0,0.0,[0. 0. 0. 0. 0. 0. 0. 0. 0.],-1.9140625,-0.3046875,9.58203125,[0. 0. 0. 0. 0. 0. 0. 0. 0.]
1742664204725732047,1742664204,723555314,imu_link,-0.01556396484375,0.09832763671875,-0.0009765625,0.99505615234375,[0. 0. 0. 0. 0. 0. 0. 0. 0.],0.0,0.0,0.0,[0. 0. 0. 0. 0. 0. 0. 0. 0.],-1.9140625,-0.3046875,9.58203125,[0. 0. 0. 0. 0. 0. 0. 0. 0.]
1742664204752809523,1742664204,740425217,imu_link,-0.01556396484375,0.09832763671875,-0.0009765625,0.99505615234375,[0. 0. 0. 0. 0. 0. 0. 0. 0.],0.0,0.0,0.0,[0. 0. 0. 0. 0. 0. 0. 0. 0.],-1.9140625,-0.3046875,9.58203125,[0. 0. 0. 0. 0. 0. 0. 0. 0.]
1742664204774942657,1742664204,760600175,imu_link,-0.01556396484375,0.09832763671875,-0.0009765625,0.99505615234375,[0. 0. 0. 0. 0. 0. 0. 0. 0.],0.0,0.0,0.0,[0. 0. 0. 0. 0. 0. 0. 0. 0.],-1.9140625,-0.3046875,9.58203125,[0. 0. 0. 0. 0. 0. 0. 0. 0.]
1742664204783793037,1742664204,780332593,imu_link,-0.01556396484375,0.09832763671875,-0.0009765625,0.99505615234375,[0. 0. 0. 0. 0. 0. 0. 0. 0.],0.0,0.0,0.0,[0. 0. 0. 0. 0. 0. 0. 0. 0.],-1.9140625,-0.3046875,9.58203125,[0. 0. 0. 0. 0. 0. 0. 0. 0.]
1742664204822066701,1742664204,800387810,imu_link,-0.01556396484375,0.09832763671875,-0.0009765625,0.99505615234375,[0. 0. 0. 0. 0. 0. 0. 0. 0.],0.0,0.0,0.0,[0. 0. 0. 0. 0. 0. 0. 0. 0.],-1.9140625,-0.3046875,9.58203125,[0. 0. 0. 0. 0. 0. 0. 0. 0.]
1742664204827058931,1742664204,824738326,imu_link,-0.01556396484375,0.09832763671875,-0.0009765625,0.99505615234375,[0. 0. 0. 0. 0. 0. 0. 0. 0.],0.0,0.0,0.0,[0. 0. 0. 0. 0. 0. 0. 0. 0.],-1.9140625,-0.3046875,9.58203125,[0. 0. 0. 0. 0. 0. 0. 0. 0.]
1742664204852307230,1742664204,840524909,imu_link,-0.01556396484375,0.09832763671875,-0.0009765625,0.99505615234375,[0. 0. 0. 0. 0. 0. 0. 0. 0.],0.0,0.0,0.0,[0. 0. 0. 0. 0. 0. 0. 0. 0.],-1.9140625,-0.3046875,9.58203125,[0. 0. 0. 0. 0. 0. 0. 0. 0.]
1742664204874481199,1742664204,860307254,imu_link,-0.01556396484375,0.09832763671875,-0.0009765625,0.99505615234375,[0. 0. 0. 0. 0. 0. 0. 0. 0.],0.0,0.0,0.0,[0. 0. 0. 0. 0. 0. 0. 0. 0.],-1.87890625,-0.3046875,9.578125,[0. 0. 0. 0. 0. 0. 0. 0. 0.]
1742664204883948007,1742664204,880440359,imu_link,-0.01556396484375,0.09832763671875,-0.0009765625,0.99505615234375,[0. 0. 0. 0. 0. 0. 0. 0. 0.],0.0,0.0,0.0,[0. 0. 0. 0. 0. 0. 0. 0. 0.],-1.87890625,-0.3046875,9.578125,[0. 0. 0. 0. 0. 0. 0. 0. 0.]
1742664204921265259,1742664204,900387168,imu_link,-0.01556396484375,0.09832763671875,-0.0009765625,0.99505615234375,[0. 0. 0. 0. 0. 0. 0. 0. 0.],0.0,0.0,0.0,[0. 0. 0. 0. 0. 0. 0. 0. 0.],-1.9140625,-0.3046875,9.58203125,[0. 0. 0. 0. 0. 0. 0. 0. 0.]
1742664204930839143,1742664204,927194383,imu_link,-0.01556396484375,0.09832763671875,-0.0009765625,0.99505615234375,[0. 0. 0. 0. 0. 0. 0. 0. 0.],0.0,0.0,0.0,[0. 0. 0. 0. 0. 0. 0. 0. 0.],-1.9140625,-0.3046875,9.58203125,[0. 0. 0. 0. 0. 0. 0. 0. 0.]
1742664204947410896,1742664204,940786769,imu_link,-0.01556396484375,0.09832763671875,-0.0009765625,0.99505615234375,[0. 0. 0. 0. 0. 0. 0. 0. 0.],0.0,0.0,0.0,[0. 0. 0. 0. 0. 0. 0. 0. 0.],-1.9140625,-0.3046875,9.58203125,[0. 0. 0. 0. 0. 0. 0. 0. 0.]
1742664204974350445,1742664204,960369020,imu_link,-0.01556396484375,0.09832763671875,-0.0009765625,0.99505615234375,[0. 0. 0. 0. 0. 0. 0. 0. 0.],0.0,0.0,0.0,[0. 0. 0. 0. 0. 0. 0. 0. 0.],-1.9140625,-0.3046875,9.58203125,[0. 0. 0. 0. 0. 0. 0. 0. 0.]
1742664204983725531,1742664204,980329995,imu_link,-0.01556396484375,0.09832763671875,-0.0009765625,0.99505615234375,[0. 0. 0. 0. 0. 0. 0. 0. 0.],0.0,0.0,0.0,[0. 0. 0. 0. 0. 0. 0. 0. 0.],-1.9140625,-0.3046875,9.58203125,[0. 0. 0. 0. 0. 0. 0. 0. 0.]
1742664205025410658,1742664205,398211,imu_link,-0.01556396484375,0.09832763671875,-0.0009765625,0.99505615234375,[0. 0. 0. 0. 0. 0. 0. 0. 0.],0.0,0.0,0.0,[0. 0. 0. 0. 0. 0. 0. 0. 0.],-1.9140625,-0.3046875,9.58203125,[0. 0. 0. 0. 0. 0. 0. 0. 0.]
1742664205030891279,1742664205,27432298,imu_link,-0.01556396484375,0.09832763671875,-0.0009765625,0.99505615234375,[0. 0. 0. 0. 0. 0. 0. 0. 0.],0.0,0.0,0.0,[0. 0. 0. 0. 0. 0. 0. 0. 0.],-1.9140625,-0.3046875,9.58203125,[0. 0. 0. 0. 0. 0. 0. 0. 0.]
1742664205047472959,1742664205,40893942,imu_link,-0.01556396484375,0.09832763671875,-0.0009765625,0.99505615234375,[0. 0. 0. 0. 0. 0. 0. 0. 0.],0.0,0.0,0.0,[0. 0. 0. 0. 0. 0. 0. 0. 0.],-1.9140625,-0.3046875,9.58203125,[0. 0. 0. 0. 0. 0. 0. 0. 0.]
1742664205073547299,1742664205,60403175,imu_link,-0.01556396484375,0.09832763671875,-0.0009765625,0.99505615234375,[0. 0. 0. 0. 0. 0. 0. 0. 0.],0.0,0.0,0.0,[0. 0. 0. 0. 0. 0. 0. 0. 0.],-1.9140625,-0.3046875,9.58203125,[0. 0. 0. 0. 0. 0. 0. 0. 0.]
1742664205090542222,1742664205,80295020,imu_link,-0.01556396484375,0.09832763671875,-0.0009765625,0.99505615234375,[0. 0. 0. 0. 0. 0. 0. 0. 0.],0.0,0.0,0.0,[0. 0. 0. 0. 0. 0. 0. 0. 0.],-1.9140625,-0.3046875,9.58203125,[0. 0. 0. 0. 0. 0. 0. 0. 0.]
1742664205103796013,1742664205,100379829,imu_link,-0.01556396484375,0.09832763671875,-0.0009765625,0.99505615234375,[0. 0. 0. 0. 0. 0. 0. 0. 0.],0.0,0.0,0.0,[0. 0. 0. 0. 0. 0. 0. 0. 0.],-1.9140625,-0.3046875,9.58203125,[0. 0. 0. 0. 0. 0. 0. 0. 0.]
1742664205134397618,1742664205,120371174,imu_link,-0.01556396484375,0.098388671875,-0.0009765625,0.99505615234375,[0. 0. 0. 0. 0. 0. 0. 0. 0.],0.0,0.0,0.0,[0. 0. 0. 0. 0. 0. 0. 0. 0.],-1.9140625,-0.3046875,9.58203125,[0. 0. 0. 0. 0. 0. 0. 0. 0.]
1742664205151507042,1742664205,140384076,imu_link,-0.01556396484375,0.098388671875,-0.0009765625,0.99505615234375,[0. 0. 0. 0. 0. 0. 0. 0. 0.],0.0,0.0,0.0,[0. 0. 0. 0. 0. 0. 0. 0. 0.],-1.9140625,-0.3046875,9.58203125,[0. 0. 0. 0. 0. 0. 0. 0. 0.]
1742664205173394805,1742664205,160298180,imu_link,-0.01556396484375,0.098388671875,-0.0009765625,0.99505615234375,[0. 0. 0. 0. 0. 0. 0. 0. 0.],0.0,0.0,0.0,[0. 0. 0. 0. 0. 0. 0. 0. 0.],-1.9140625,-0.3046875,9.58203125,[0. 0. 0. 0. 0. 0. 0. 0. 0.]
1742664205191192898,1742664205,180310322,imu_link,-0.01556396484375,0.098388671875,-0.0009765625,0.99505615234375,[0. 0. 0. 0. 0. 0. 0. 0. 0.],0.0,0.0,0.0,[0. 0. 0. 0. 0. 0. 0. 0. 0.],-1.9140625,-0.3046875,9.58203125,[0. 0. 0. 0. 0. 0. 0. 0. 0.]
1742664205203952909,1742664205,200439928,imu_link,-0.01556396484375,0.098388671875,-0.0009765625,0.99505615234375,[0. 0. 0. 0. 0. 0. 0. 0. 0.],0.0,0.0,0.0,[0. 0. 0. 0. 0. 0. 0. 0. 0.],-1.9140625,-0.3046875,9.58203125,[0. 0. 0. 0. 0. 0. 0. 0. 0.]
1742664205234919146,1742664205,220289495,imu_link,-0.01556396484375,0.098388671875,-0.0009765625,0.99505615234375,[0. 0. 0. 0. 0. 0. 0. 0. 0.],0.0,0.0,0.0,[0. 0. 0. 0. 0. 0. 0. 0. 0.],-1.9140625,-0.3046875,9.58203125,[0. 0. 0. 0. 0. 0. 0. 0. 0.]
1742664205252176866,1742664205,240442897,imu_link,-0.01556396484375,0.098388671875,-0.0009765625,0.99505615234375,[0. 0. 0. 0. 0. 0. 0. 0. 0.],0.0,0.0,0.0,[0. 0. 0. 0. 0. 0. 0. 0. 0.],-1.9140625,-0.3046875,9.58203125,[0. 0. 0. 0. 0. 0. 0. 0. 0.]
1742664205277004571,1742664205,260350668,imu_link,-0.01556396484375,0.098388671875,-0.0009765625,0.99505615234375,[0. 0. 0. 0. 0. 0. 0. 0. 0.],0.0,0.0,0.0,[0. 0. 0. 0. 0. 0. 0. 0. 0.],-1.9140625,-0.3046875,9.58203125,[0. 0. 0. 0. 0. 0. 0. 0. 0.]
1742664205283751791,1742664205,280283755,imu_link,-0.01556396484375,0.098388671875,-0.0009765625,0.99505615234375,[0. 0. 0. 0. 0. 0. 0. 0. 0.],0.0,0.0,0.0,[0. 0. 0. 0. 0. 0. 0. 0. 0.],-1.9140625,-0.3046875,9.58203125,[0. 0. 0. 0. 0. 0. 0. 0. 0.]
1742664205322088641,1742664205,300391656,imu_link,-0.01556396484375,0.098388671875,-0.0009765625,0.99505615234375,[0. 0. 0. 0. 0. 0. 0. 0. 0.],0.0,0.0,0.0,[0. 0. 0. 0. 0. 0. 0. 0. 0.],-1.9140625,-0.3046875,9.58203125,[0. 0. 0. 0. 0. 0. 0. 0. 0.]
1742664205327442039,1742664205,324833137,imu_link,-0.01556396484375,0.098388671875,-0.0009765625,0.99505615234375,[0. 0. 0. 0. 0. 0. 0. 0. 0.],0.0,0.0,0.0,[0. 0. 0. 0. 0. 0. 0. 0. 0.],-1.9140625,-0.3046875,9.58203125,[0. 0. 0. 0. 0. 0. 0. 0. 0.]
1742664205353234026,1742664205,340420441,imu_link,-0.01556396484375,0.098388671875,-0.0009765625,0.99505615234375,[0. 0. 0. 0. 0. 0. 0. 0. 0.],0.0,0.0,0.0,[0. 0. 0. 0. 0. 0. 0. 0. 0.],-1.9140625,-0.3046875,9.58203125,[0. 0. 0. 0. 0. 0. 0. 0. 0.]
1742664205379308700,1742664205,360348675,imu_link,-0.01556396484375,0.098388671875,-0.0009765625,0.99505615234375,[0. 0. 0. 0. 0. 0. 0. 0. 0.],0.0,0.0,0.0,[0. 0. 0. 0. 0. 0. 0. 0. 0.],-1.9140625,-0.3046875,9.58203125,[0. 0. 0. 0. 0. 0. 0. 0. 0.]
1742664205384562783,1742664205,382004659,imu_link,-0.01556396484375,0.098388671875,-0.0009765625,0.99505615234375,[0. 0. 0. 0. 0. 0. 0. 0. 0.],0.0,0.0,0.0,[0. 0. 0. 0. 0. 0. 0. 0. 0.],-1.9140625,-0.3046875,9.58203125,[0. 0. 0. 0. 0. 0. 0. 0. 0.]
1742664205416602285,1742664205,400360774,imu_link,-0.01556396484375,0.098388671875,-0.0009765625,0.99505615234375,[0. 0. 0. 0. 0. 0. 0. 0. 0.],0.0,0.0,0.0,[0. 0. 0. 0. 0. 0. 0. 0. 0.],-1.9140625,-0.3046875,9.58203125,[0. 0. 0. 0. 0. 0. 0. 0. 0.]
1742664205423673600,1742664205,420273415,imu_link,-0.01556396484375,0.098388671875,-0.0009765625,0.99505615234375,[0. 0. 0. 0. 0. 0. 0. 0. 0.],0.0,0.0,0.0,[0. 0. 0. 0. 0. 0. 0. 0. 0.],-1.9140625,-0.3046875,9.58203125,[0. 0. 0. 0. 0. 0. 0. 0. 0.]
1742664205451947248,1742664205,440405743,imu_link,-0.01556396484375,0.098388671875,-0.0009765625,0.99505615234375,[0. 0. 0. 0. 0. 0. 0. 0. 0.],0.0,0.0,0.0,[0. 0. 0. 0. 0. 0. 0. 0. 0.],-1.9140625,-0.3046875,9.58203125,[0. 0. 0. 0. 0. 0. 0. 0. 0.]
1742664205473593010,1742664205,460296922,imu_link,-0.01556396484375,0.098388671875,-0.0009765625,0.99505615234375,[0. 0. 0. 0. 0. 0. 0. 0. 0.],0.0,0.0,0.0,[0. 0. 0. 0. 0. 0. 0. 0. 0.],-1.9140625,-0.3046875,9.58203125,[0. 0. 0. 0. 0. 0. 0. 0. 0.]
1742664205483706952,1742664205,480284027,imu_link,-0.01556396484375,0.098388671875,-0.0009765625,0.99505615234375,[0. 0. 0. 0. 0. 0. 0. 0. 0.],0.0,0.0,0.0,[0. 0. 0. 0. 0. 0. 0. 0. 0.],-1.9140625,-0.3046875,9.58203125,[0. 0. 0. 0. 0. 0. 0. 0. 0.]
1742664205520127532,1742664205,500386632,imu_link,-0.01556396484375,0.098388671875,-0.0009765625,0.9949951171875,[0. 0. 0. 0. 0. 0. 0. 0. 0.],0.0,0.0,0.0,[0. 0. 0. 0. 0. 0. 0. 0. 0.],-1.87890625,-0.3046875,9.578125,[0. 0. 0. 0. 0. 0. 0. 0. 0.]
1742664205530337715,1742664205,523022862,imu_link,-0.01556396484375,0.098388671875,-0.0009765625,0.9949951171875,[0. 0. 0. 0. 0. 0. 0. 0. 0.],0.0,0.0,0.0,[0. 0. 0. 0. 0. 0. 0. 0. 0.],-1.9140625,-0.3046875,9.58203125,[0. 0. 0. 0. 0. 0. 0. 0. 0.]
1742664205546373114,1742664205,540427916,imu_link,-0.01556396484375,0.098388671875,-0.0009765625,0.9949951171875,[0. 0. 0. 0. 0. 0. 0. 0. 0.],0.0,0.0,0.0,[0. 0. 0. 0. 0. 0. 0. 0. 0.],-1.9140625,-0.3046875,9.58203125,[0. 0. 0. 0. 0. 0. 0. 0. 0.]
1742664205574190723,1742664205,560669949,imu_link,-0.01556396484375,0.098388671875,-0.0009765625,0.9949951171875,[0. 0. 0. 0. 0. 0. 0. 0. 0.],0.0,0.0,0.0,[0. 0. 0. 0. 0. 0. 0. 0. 0.],-1.9140625,-0.3046875,9.58203125,[0. 0. 0. 0. 0. 0. 0. 0. 0.]
1742664205583260715,1742664205,580427145,imu_link,-0.01556396484375,0.098388671875,-0.0009765625,0.9949951171875,[0. 0. 0. 0. 0. 0. 0. 0. 0.],0.0,0.0,0.0,[0. 0. 0. 0. 0. 0. 0. 0. 0.],-1.9140625,-0.3046875,9.58203125,[0. 0. 0. 0. 0. 0. 0. 0. 0.]
1742664205624068615,1742664205,600394713,imu_link,-0.01556396484375,0.098388671875,-0.0009765625,0.9949951171875,[0. 0. 0. 0. 0. 0. 0. 0. 0.],0.0,0.0,0.0,[0. 0. 0. 0. 0. 0. 0. 0. 0.],-1.9140625,-0.3046875,9.58203125,[0. 0. 0. 0. 0. 0. 0. 0. 0.]
1742664205629111160,1742664205,625902069,imu_link,-0.01556396484375,0.098388671875,-0.0009765625,0.9949951171875,[0. 0. 0. 0. 0. 0. 0. 0. 0.],0.0,0.0,0.0,[0. 0. 0. 0. 0. 0. 0. 0. 0.],-1.9140625,-0.3046875,9.58203125,[0. 0. 0. 0. 0. 0. 0. 0. 0.]
1742664205646926809,1742664205,640353441,imu_link,-0.01556396484375,0.098388671875,-0.0009765625,0.9949951171875,[0. 0. 0. 0. 0. 0. 0. 0. 0.],0.0,0.0,0.0,[0. 0. 0. 0. 0. 0. 0. 0. 0.],-1.9140625,-0.3046875,9.58203125,[0. 0. 0. 0. 0. 0. 0. 0. 0.]
1742664205673057816,1742664205,660339157,imu_link,-0.01556396484375,0.098388671875,-0.0009765625,0.9949951171875,[0. 0. 0. 0. 0. 0. 0. 0. 0.],0.0,0.0,0.0,[0. 0. 0. 0. 0. 0. 0. 0. 0.],-1.87890625,-0.3046875,9.578125,[0. 0. 0. 0. 0. 0. 0. 0. 0.]
1742664205691490043,1742664205,680687690,imu_link,-0.01556396484375,0.098388671875,-0.0009765625,0.9949951171875,[0. 0. 0. 0. 0. 0. 0. 0. 0.],0.0,0.0,0.0,[0. 0. 0. 0. 0. 0. 0. 0. 0.],-1.9140625,-0.3046875,9.58203125,[0. 0. 0. 0. 0. 0. 0. 0. 0.]
1742664205703492920,1742664205,700524757,imu_link,-0.01556396484375,0.098388671875,-0.0009765625,0.9949951171875,[0. 0. 0. 0. 0. 0. 0. 0. 0.],0.0,0.0,0.0,[0. 0. 0. 0. 0. 0. 0. 0. 0.],-1.9140625,-0.3046875,9.58203125,[0. 0. 0. 0. 0. 0. 0. 0. 0.]
1742664205733924617,1742664205,720340472,imu_link,-0.01556396484375,0.098388671875,-0.0009765625,0.99505615234375,[0. 0. 0. 0. 0. 0. 0. 0. 0.],0.0,0.0,0.0,[0. 0. 0. 0. 0. 0. 0. 0. 0.],-1.9140625,-0.3046875,9.58203125,[0. 0. 0. 0. 0. 0. 0. 0. 0.]
1742664205746239904,1742664205,740364447,imu_link,-0.01556396484375,0.098388671875,-0.0009765625,0.99505615234375,[0. 0. 0. 0. 0. 0. 0. 0. 0.],0.0,0.0,0.0,[0. 0. 0. 0. 0. 0. 0. 0. 0.],-1.9140625,-0.3046875,9.58203125,[0. 0. 0. 0. 0. 0. 0. 0. 0.]
1742664205773962179,1742664205,760330015,imu_link,-0.01556396484375,0.098388671875,-0.0009765625,0.99505615234375,[0. 0. 0. 0. 0. 0. 0. 0. 0.],0.0,0.0,0.0,[0. 0. 0. 0. 0. 0. 0. 0. 0.],-1.9140625,-0.3046875,9.58203125,[0. 0. 0. 0. 0. 0. 0. 0. 0.]
1742664205791315789,1742664205,780471491,imu_link,-0.01556396484375,0.098388671875,-0.0009765625,0.99505615234375,[0. 0. 0. 0. 0. 0. 0. 0. 0.],0.0,0.0,0.0,[0. 0. 0. 0. 0. 0. 0. 0. 0.],-1.9140625,-0.3046875,9.58203125,[0. 0. 0. 0. 0. 0. 0. 0. 0.]
1742664205803379056,1742664205,800471485,imu_link,-0.01556396484375,0.098388671875,-0.0009765625,0.99505615234375,[0. 0. 0. 0. 0. 0. 0. 0. 0.],0.0,0.0,0.0,[0. 0. 0. 0. 0. 0. 0. 0. 0.],-1.9140625,-0.3046875,9.58203125,[0. 0. 0. 0. 0. 0. 0. 0. 0.]
1742664205834400441,1742664205,820362812,imu_link,-0.01556396484375,0.09832763671875,-0.0009765625,0.99505615234375,[0. 0. 0. 0. 0. 0. 0. 0. 0.],0.0,0.0,0.0,[0. 0. 0. 0. 0. 0. 0. 0. 0.],-1.9140625,-0.3046875,9.58203125,[0. 0. 0. 0. 0. 0. 0. 0. 0.]
1742664205848873869,1742664205,845236183,imu_link,-0.01556396484375,0.09832763671875,-0.0009765625,0.99505615234375,[0. 0. 0. 0. 0. 0. 0. 0. 0.],0.0,0.0,0.0,[0. 0. 0. 0. 0. 0. 0. 0. 0.],-1.9140625,-0.3046875,9.58203125,[0. 0. 0. 0. 0. 0. 0. 0. 0.]
1742664205875860992,1742664205,860317077,imu_link,-0.01556396484375,0.09832763671875,-0.0009765625,0.99505615234375,[0. 0. 0. 0. 0. 0. 0. 0. 0.],0.0,0.0,0.0,[0. 0. 0. 0. 0. 0. 0. 0. 0.],-1.9140625,-0.3046875,9.58203125,[0. 0. 0. 0. 0. 0. 0. 0. 0.]
1742664205883448791,1742664205,880435905,imu_link,-0.01556396484375,0.09832763671875,-0.0009765625,0.99505615234375,[0. 0. 0. 0. 0. 0. 0. 0. 0.],0.0,0.0,0.0,[0. 0. 0. 0. 0. 0. 0. 0. 0.],-1.9140625,-0.3046875,9.58203125,[0. 0. 0. 0. 0. 0. 0. 0. 0.]
1742664205918928162,1742664205,900364343,imu_link,-0.01556396484375,0.09832763671875,-0.0009765625,0.99505615234375,[0. 0. 0. 0. 0. 0. 0. 0. 0.],0.0,0.0,0.0,[0. 0. 0. 0. 0. 0. 0. 0. 0.],-1.9140625,-0.3046875,9.58203125,[0. 0. 0. 0. 0. 0. 0. 0. 0.]
1742664205923784132,1742664205,921586584,imu_link,-0.01556396484375,0.09832763671875,-0.0009765625,0.99505615234375,[0. 0. 0. 0. 0. 0. 0. 0. 0.],0.0,0.0,0.0,[0. 0. 0. 0. 0. 0. 0. 0. 0.],-1.9140625,-0.3046875,9.58203125,[0. 0. 0. 0. 0. 0. 0. 0. 0.]
1742664205951291851,1742664205,940390219,imu_link,-0.01556396484375,0.09832763671875,-0.0009765625,0.99505615234375,[0. 0. 0. 0. 0. 0. 0. 0. 0.],0.0,0.0,0.0,[0. 0. 0. 0. 0. 0. 0. 0. 0.],-1.9140625,-0.3046875,9.58203125,[0. 0. 0. 0. 0. 0. 0. 0. 0.]
1742664205975816776,1742664205,960334213,imu_link,-0.01556396484375,0.09832763671875,-0.0009765625,0.99505615234375,[0. 0. 0. 0. 0. 0. 0. 0. 0.],0.0,0.0,0.0,[0. 0. 0. 0. 0. 0. 0. 0. 0.],-1.9140625,-0.3046875,9.58203125,[0. 0. 0. 0. 0. 0. 0. 0. 0.]
1742664205983255796,1742664205,980390670,imu_link,-0.01556396484375,0.09832763671875,-0.0009765625,0.99505615234375,[0. 0. 0. 0. 0. 0. 0. 0. 0.],0.0,0.0,0.0,[0. 0. 0. 0. 0. 0. 0. 0. 0.],-1.9140625,-0.3046875,9.58203125,[0. 0. 0. 0. 0. 0. 0. 0. 0.]
1742664206017397290,1742664206,367479,imu_link,-0.01556396484375,0.09832763671875,-0.0009765625,0.99505615234375,[0. 0. 0. 0. 0. 0. 0. 0. 0.],0.0,0.0,0.0,[0. 0. 0. 0. 0. 0. 0. 0. 0.],-1.9140625,-0.3046875,9.58203125,[0. 0. 0. 0. 0. 0. 0. 0. 0.]
1742664206023795231,1742664206,20538325,imu_link,-0.01556396484375,0.09832763671875,-0.0009765625,0.99505615234375,[0. 0. 0. 0. 0. 0. 0. 0. 0.],0.0,0.0,0.0,[0. 0. 0. 0. 0. 0. 0. 0. 0.],-1.9140625,-0.3046875,9.58203125,[0. 0. 0. 0. 0. 0. 0. 0. 0.]
1742664206051193320,1742664206,40393411,imu_link,-0.01556396484375,0.09832763671875,-0.0009765625,0.99505615234375,[0. 0. 0. 0. 0. 0. 0. 0. 0.],0.0,0.0,0.0,[0. 0. 0. 0. 0. 0. 0. 0. 0.],-1.9140625,-0.3046875,9.58203125,[0. 0. 0. 0. 0. 0. 0. 0. 0.]
1742664206073206583,1742664206,60343756,imu_link,-0.01556396484375,0.09832763671875,-0.0009765625,0.99505615234375,[0. 0. 0. 0. 0. 0. 0. 0. 0.],0.0,0.0,0.0,[0. 0. 0. 0. 0. 0. 0. 0. 0.],-1.9140625,-0.3046875,9.58203125,[0. 0. 0. 0. 0. 0. 0. 0. 0.]
1742664206083292155,1742664206,80405028,imu_link,-0.01556396484375,0.09832763671875,-0.0009765625,0.99505615234375,[0. 0. 0. 0. 0. 0. 0. 0. 0.],0.0,0.0,0.0,[0. 0. 0. 0. 0. 0. 0. 0. 0.],-1.9140625,-0.3046875,9.58203125,[0. 0. 0. 0. 0. 0. 0. 0. 0.]
1742664206117355315,1742664206,100374411,imu_link,-0.01556396484375,0.09832763671875,-0.0009765625,0.99505615234375,[0. 0. 0. 0. 0. 0. 0. 0. 0.],0.0,0.0,0.0,[0. 0. 0. 0. 0. 0. 0. 0. 0.],-1.9140625,-0.3046875,9.58203125,[0. 0. 0. 0. 0. 0. 0. 0. 0.]
1742664206123136067,1742664206,120313682,imu_link,-0.01556396484375,0.09832763671875,-0.0009765625,0.99505615234375,[0. 0. 0. 0. 0. 0. 0. 0. 0.],0.0,0.0,0.0,[0. 0. 0. 0. 0. 0. 0. 0. 0.],-1.9140625,-0.3046875,9.58203125,[0. 0. 0. 0. 0. 0. 0. 0. 0.]
1742664206146320041,1742664206,140401695,imu_link,-0.01556396484375,0.09832763671875,-0.0009765625,0.99505615234375,[0. 0. 0. 0. 0. 0. 0. 0. 0.],0.0,0.0,0.0,[0. 0. 0. 0. 0. 0. 0. 0. 0.],-1.87890625,-0.3046875,9.578125,[0. 0. 0. 0. 0. 0. 0. 0. 0.]
1742664206173218201,1742664206,160292837,imu_link,-0.01556396484375,0.09832763671875,-0.0009765625,0.99505615234375,[0. 0. 0. 0. 0. 0. 0. 0. 0.],0.0,0.0,0.0,[0. 0. 0. 0. 0. 0. 0. 0. 0.],-1.9140625,-0.3046875,9.58203125,[0. 0. 0. 0. 0. 0. 0. 0. 0.]
1742664206182927455,1742664206,180580110,imu_link,-0.01556396484375,0.09832763671875,-0.0009765625,0.99505615234375,[0. 0. 0. 0. 0. 0. 0. 0. 0.],0.0,0.0,0.0,[0. 0. 0. 0. 0. 0. 0. 0. 0.],-1.9140625,-0.3046875,9.58203125,[0. 0. 0. 0. 0. 0. 0. 0. 0.]
1742664206203203154,1742664206,200489251,imu_link,-0.01556396484375,0.09832763671875,-0.0009765625,0.99505615234375,[0. 0. 0. 0. 0. 0. 0. 0. 0.],0.0,0.0,0.0,[0. 0. 0. 0. 0. 0. 0. 0. 0.],-1.9140625,-0.3046875,9.58203125,[0. 0. 0. 0. 0. 0. 0. 0. 0.]
1742664206226343980,1742664206,220323966,imu_link,-0.01556396484375,0.09832763671875,-0.0009765625,0.99505615234375,[0. 0. 0. 0. 0. 0. 0. 0. 0.],0.0,0.0,0.0,[0. 0. 0. 0. 0. 0. 0. 0. 0.],-1.9140625,-0.3046875,9.58203125,[0. 0. 0. 0. 0. 0. 0. 0. 0.]
1742664206247428609,1742664206,240396738,imu_link,-0.01556396484375,0.09832763671875,-0.0009765625,0.99505615234375,[0. 0. 0. 0. 0. 0. 0. 0. 0.],0.0,0.0,0.0,[0. 0. 0. 0. 0. 0. 0. 0. 0.],-1.9140625,-0.3046875,9.58203125,[0. 0. 0. 0. 0. 0. 0. 0. 0.]
1742664206272486074,1742664206,260313713,imu_link,-0.01556396484375,0.09832763671875,-0.0009765625,0.99505615234375,[0. 0. 0. 0. 0. 0. 0. 0. 0.],0.0,0.0,0.0,[0. 0. 0. 0. 0. 0. 0. 0. 0.],-1.9140625,-0.3046875,9.609375,[0. 0. 0. 0. 0. 0. 0. 0. 0.]
1742664206292194140,1742664206,281447991,imu_link,-0.01556396484375,0.09832763671875,-0.0009765625,0.99505615234375,[0. 0. 0. 0. 0. 0. 0. 0. 0.],0.0,0.0,0.0,[0. 0. 0. 0. 0. 0. 0. 0. 0.],-1.9140625,-0.3046875,9.58203125,[0. 0. 0. 0. 0. 0. 0. 0. 0.]
1742664206302512398,1742664206,300300479,imu_link,-0.01556396484375,0.09832763671875,-0.0009765625,0.99505615234375,[0. 0. 0. 0. 0. 0. 0. 0. 0.],0.0,0.0,0.0,[0. 0. 0. 0. 0. 0. 0. 0. 0.],-1.9140625,-0.3046875,9.58203125,[0. 0. 0. 0. 0. 0. 0. 0. 0.]
1742664206337688101,1742664206,320340917,imu_link,-0.01556396484375,0.09832763671875,-0.0009765625,0.99505615234375,[0. 0. 0. 0. 0. 0. 0. 0. 0.],0.0,0.0,0.0,[0. 0. 0. 0. 0. 0. 0. 0. 0.],-1.9140625,-0.3046875,9.58203125,[0. 0. 0. 0. 0. 0. 0. 0. 0.]
1742664206342768053,1742664206,340374004,imu_link,-0.01556396484375,0.09832763671875,-0.0009765625,0.99505615234375,[0. 0. 0. 0. 0. 0. 0. 0. 0.],0.0,0.0,0.0,[0. 0. 0. 0. 0. 0. 0. 0. 0.],-1.9140625,-0.3046875,9.58203125,[0. 0. 0. 0. 0. 0. 0. 0. 0.]
1742664206372876637,1742664206,360356757,imu_link,-0.01556396484375,0.0982666015625,-0.0009765625,0.99505615234375,[0. 0. 0. 0. 0. 0. 0. 0. 0.],0.0,0.0,0.0,[0. 0. 0. 0. 0. 0. 0. 0. 0.],-1.87890625,-0.3046875,9.578125,[0. 0. 0. 0. 0. 0. 0. 0. 0.]
1742664206391960886,1742664206,380743808,imu_link,-0.01556396484375,0.0982666015625,-0.0009765625,0.99505615234375,[0. 0. 0. 0. 0. 0. 0. 0. 0.],0.0,0.0,0.0,[0. 0. 0. 0. 0. 0. 0. 0. 0.],-1.9140625,-0.3046875,9.58203125,[0. 0. 0. 0. 0. 0. 0. 0. 0.]
1742664206402581608,1742664206,400364652,imu_link,-0.01556396484375,0.0982666015625,-0.0009765625,0.99505615234375,[0. 0. 0. 0. 0. 0. 0. 0. 0.],0.0,0.0,0.0,[0. 0. 0. 0. 0. 0. 0. 0. 0.],-1.9140625,-0.3046875,9.58203125,[0. 0. 0. 0. 0. 0. 0. 0. 0.]
1742664206433911773,1742664206,420366868,imu_link,-0.01556396484375,0.0982666015625,-0.0009765625,0.99505615234375,[0. 0. 0. 0. 0. 0. 0. 0. 0.],0.0,0.0,0.0,[0. 0. 0. 0. 0. 0. 0. 0. 0.],-1.9140625,-0.3046875,9.58203125,[0. 0. 0. 0. 0. 0. 0. 0. 0.]
1742664206447368214,1742664206,444323475,imu_link,-0.01556396484375,0.0982666015625,-0.0009765625,0.99505615234375,[0. 0. 0. 0. 0. 0. 0. 0. 0.],0.0,0.0,0.0,[0. 0. 0. 0. 0. 0. 0. 0. 0.],-1.9140625,-0.3046875,9.58203125,[0. 0. 0. 0. 0. 0. 0. 0. 0.]
1742664206478105708,1742664206,460316337,imu_link,-0.01556396484375,0.0982666015625,-0.0009765625,0.99505615234375,[0. 0. 0. 0. 0. 0. 0. 0. 0.],0.0,0.0,0.0,[0. 0. 0. 0. 0. 0. 0. 0. 0.],-1.9140625,-0.3046875,9.58203125,[0. 0. 0. 0. 0. 0. 0. 0. 0.]
1742664206482654399,1742664206,480738463,imu_link,-0.01556396484375,0.0982666015625,-0.0009765625,0.99505615234375,[0. 0. 0. 0. 0. 0. 0. 0. 0.],0.0,0.0,0.0,[0. 0. 0. 0. 0. 0. 0. 0. 0.],-1.9140625,-0.3046875,9.58203125,[0. 0. 0. 0. 0. 0. 0. 0. 0.]
1742664206517850769,1742664206,500361566,imu_link,-0.01556396484375,0.0982666015625,-0.0009765625,0.99505615234375,[0. 0. 0. 0. 0. 0. 0. 0. 0.],0.0,0.0,0.0,[0. 0. 0. 0. 0. 0. 0. 0. 0.],-1.9140625,-0.3046875,9.58203125,[0. 0. 0. 0. 0. 0. 0. 0. 0.]
1742664206522921332,1742664206,520743839,imu_link,-0.01556396484375,0.0982666015625,-0.0009765625,0.99505615234375,[0. 0. 0. 0. 0. 0. 0. 0. 0.],0.0,0.0,0.0,[0. 0. 0. 0. 0. 0. 0. 0. 0.],-1.9140625,-0.3046875,9.58203125,[0. 0. 0. 0. 0. 0. 0. 0. 0.]
1742664206551658909,1742664206,540340294,imu_link,-0.01556396484375,0.0982666015625,-0.0009765625,0.99505615234375,[0. 0. 0. 0. 0. 0. 0. 0. 0.],0.0,0.0,0.0,[0. 0. 0. 0. 0. 0. 0. 0. 0.],-1.9140625,-0.3046875,9.58203125,[0. 0. 0. 0. 0. 0. 0. 0. 0.]
1742664206578060066,1742664206,560318417,imu_link,-0.01556396484375,0.0982666015625,-0.0009765625,0.99505615234375,[0. 0. 0. 0. 0. 0. 0. 0. 0.],0.0,0.0,0.0,[0. 0. 0. 0. 0. 0. 0. 0. 0.],-1.9140625,-0.3046875,9.58203125,[0. 0. 0. 0. 0. 0. 0. 0. 0.]
1742664206582451089,1742664206,580672876,imu_link,-0.01556396484375,0.0982666015625,-0.0009765625,0.99505615234375,[0. 0. 0. 0. 0. 0. 0. 0. 0.],0.0,0.0,0.0,[0. 0. 0. 0. 0. 0. 0. 0. 0.],-1.9140625,-0.3046875,9.58203125,[0. 0. 0. 0. 0. 0. 0. 0. 0.]
1742664206617744515,1742664206,600370257,imu_link,-0.01556396484375,0.09820556640625,-0.0009765625,0.99505615234375,[0. 0. 0. 0. 0. 0. 0. 0. 0.],0.0,0.0,0.0,[0. 0. 0. 0. 0. 0. 0. 0. 0.],-1.9140625,-0.3046875,9.58203125,[0. 0. 0. 0. 0. 0. 0. 0. 0.]
1742664206622782449,1742664206,620985069,imu_link,-0.01556396484375,0.09820556640625,-0.0009765625,0.99505615234375,[0. 0. 0. 0. 0. 0. 0. 0. 0.],0.0,0.0,0.0,[0. 0. 0. 0. 0. 0. 0. 0. 0.],-1.9140625,-0.3046875,9.58203125,[0. 0. 0. 0. 0. 0. 0. 0. 0.]
1742664206651451636,1742664206,640382689,imu_link,-0.01556396484375,0.09820556640625,-0.0009765625,0.99505615234375,[0. 0. 0. 0. 0. 0. 0. 0. 0.],0.0,0.0,0.0,[0. 0. 0. 0. 0. 0. 0. 0. 0.],-1.9140625,-0.3046875,9.58203125,[0. 0. 0. 0. 0. 0. 0. 0. 0.]
1742664206673393363,1742664206,660309183,imu_link,-0.01556396484375,0.0982666015625,-0.0009765625,0.99505615234375,[0. 0. 0. 0. 0. 0. 0. 0. 0.],0.0,0.0,0.0,[0. 0. 0. 0. 0. 0. 0. 0. 0.],-1.9140625,-0.3046875,9.58203125,[0. 0. 0. 0. 0. 0. 0. 0. 0.]
1742664206682250835,1742664206,680318140,imu_link,-0.01556396484375,0.0982666015625,-0.0009765625,0.99505615234375,[0. 0. 0. 0. 0. 0. 0. 0. 0.],0.0,0.0,0.0,[0. 0. 0. 0. 0. 0. 0. 0. 0.],-1.9140625,-0.3046875,9.58203125,[0. 0. 0. 0. 0. 0. 0. 0. 0.]
1742664206717749040,1742664206,700524505,imu_link,-0.01556396484375,0.0982666015625,-0.0009765625,0.99505615234375,[0. 0. 0. 0. 0. 0. 0. 0. 0.],0.0,0.0,0.0,[0. 0. 0. 0. 0. 0. 0. 0. 0.],-1.9140625,-0.3046875,9.58203125,[0. 0. 0. 0. 0. 0. 0. 0. 0.]
1742664206722888789,1742664206,720452239,imu_link,-0.01556396484375,0.0982666015625,-0.0009765625,0.99505615234375,[0. 0. 0. 0. 0. 0. 0. 0. 0.],0.0,0.0,0.0,[0. 0. 0. 0. 0. 0. 0. 0. 0.],-1.9140625,-0.3046875,9.58203125,[0. 0. 0. 0. 0. 0. 0. 0. 0.]
1742664206751334401,1742664206,740387529,imu_link,-0.01556396484375,0.0982666015625,-0.0009765625,0.99505615234375,[0. 0. 0. 0. 0. 0. 0. 0. 0.],0.0,0.0,0.0,[0. 0. 0. 0. 0. 0. 0. 0. 0.],-1.9140625,-0.3046875,9.58203125,[0. 0. 0. 0. 0. 0. 0. 0. 0.]
1742664206774991674,1742664206,760306282,imu_link,-0.01556396484375,0.0982666015625,-0.0009765625,0.99505615234375,[0. 0. 0. 0. 0. 0. 0. 0. 0.],0.0,0.0,0.0,[0. 0. 0. 0. 0. 0. 0. 0. 0.],-1.9140625,-0.3046875,9.58203125,[0. 0. 0. 0. 0. 0. 0. 0. 0.]
1742664206782053248,1742664206,780283905,imu_link,-0.01556396484375,0.0982666015625,-0.0009765625,0.99505615234375,[0. 0. 0. 0. 0. 0. 0. 0. 0.],0.0,0.0,0.0,[0. 0. 0. 0. 0. 0. 0. 0. 0.],-1.9140625,-0.3046875,9.58203125,[0. 0. 0. 0. 0. 0. 0. 0. 0.]
1742664206817014857,1742664206,800335825,imu_link,-0.01556396484375,0.0982666015625,-0.0009765625,0.99505615234375,[0. 0. 0. 0. 0. 0. 0. 0. 0.],0.0,0.0,0.0,[0. 0. 0. 0. 0. 0. 0. 0. 0.],-1.9140625,-0.3046875,9.58203125,[0. 0. 0. 0. 0. 0. 0. 0. 0.]
1742664206827419004,1742664206,823873819,imu_link,-0.01556396484375,0.0982666015625,-0.0009765625,0.99505615234375,[0. 0. 0. 0. 0. 0. 0. 0. 0.],0.0,0.0,0.0,[0. 0. 0. 0. 0. 0. 0. 0. 0.],-1.9140625,-0.3046875,9.58203125,[0. 0. 0. 0. 0. 0. 0. 0. 0.]
1742664206847397757,1742664206,840291739,imu_link,-0.01556396484375,0.0982666015625,-0.0009765625,0.99505615234375,[0. 0. 0. 0. 0. 0. 0. 0. 0.],0.0,0.0,0.0,[0. 0. 0. 0. 0. 0. 0. 0. 0.],-1.9140625,-0.3046875,9.58203125,[0. 0. 0. 0. 0. 0. 0. 0. 0.]
1742664206872439093,1742664206,860339529,imu_link,-0.01556396484375,0.0982666015625,-0.0009765625,0.99505615234375,[0. 0. 0. 0. 0. 0. 0. 0. 0.],0.0,0.0,0.0,[0. 0. 0. 0. 0. 0. 0. 0. 0.],-1.9140625,-0.3046875,9.58203125,[0. 0. 0. 0. 0. 0. 0. 0. 0.]
1742664206890517465,1742664206,880404208,imu_link,-0.01556396484375,0.0982666015625,-0.0009765625,0.99505615234375,[0. 0. 0. 0. 0. 0. 0. 0. 0.],0.0,0.0,0.0,[0. 0. 0. 0. 0. 0. 0. 0. 0.],-1.9140625,-0.3046875,9.58203125,[0. 0. 0. 0. 0. 0. 0. 0. 0.]
1742664206902232841,1742664206,900344683,imu_link,-0.01556396484375,0.0982666015625,-0.0009765625,0.99505615234375,[0. 0. 0. 0. 0. 0. 0. 0. 0.],0.0,0.0,0.0,[0. 0. 0. 0. 0. 0. 0. 0. 0.],-1.9140625,-0.3046875,9.58203125,[0. 0. 0. 0. 0. 0. 0. 0. 0.]
1742664206927576030,1742664206,920514493,imu_link,-0.01556396484375,0.0982666015625,-0.0009765625,0.99505615234375,[0. 0. 0. 0. 0. 0. 0. 0. 0.],0.0,0.0,0.0,[0. 0. 0. 0. 0. 0. 0. 0. 0.],-1.9140625,-0.3046875,9.58203125,[0. 0. 0. 0. 0. 0. 0. 0. 0.]
1742664206950955560,1742664206,940298449,imu_link,-0.01556396484375,0.0982666015625,-0.0009765625,0.99505615234375,[0. 0. 0. 0. 0. 0. 0. 0. 0.],0.0,0.0,0.0,[0. 0. 0. 0. 0. 0. 0. 0. 0.],-1.9140625,-0.3046875,9.58203125,[0. 0. 0. 0. 0. 0. 0. 0. 0.]
1742664206972763582,1742664206,960317072,imu_link,-0.01556396484375,0.09832763671875,-0.0009765625,0.99505615234375,[0. 0. 0. 0. 0. 0. 0. 0. 0.],0.0,0.0,0.0,[0. 0. 0. 0. 0. 0. 0. 0. 0.],-1.9140625,-0.3046875,9.58203125,[0. 0. 0. 0. 0. 0. 0. 0. 0.]
1742664206991284161,1742664206,980302492,imu_link,-0.01556396484375,0.09832763671875,-0.0009765625,0.99505615234375,[0. 0. 0. 0. 0. 0. 0. 0. 0.],0.0,0.0,0.0,[0. 0. 0. 0. 0. 0. 0. 0. 0.],-1.9140625,-0.3046875,9.58203125,[0. 0. 0. 0. 0. 0. 0. 0. 0.]
1742664207002175347,1742664207,350968,imu_link,-0.01556396484375,0.09832763671875,-0.0009765625,0.99505615234375,[0. 0. 0. 0. 0. 0. 0. 0. 0.],0.0,0.0,0.0,[0. 0. 0. 0. 0. 0. 0. 0. 0.],-1.9140625,-0.3046875,9.58203125,[0. 0. 0. 0. 0. 0. 0. 0. 0.]
1742664207022571362,1742664207,20478018,imu_link,-0.01556396484375,0.09832763671875,-0.0009765625,0.99505615234375,[0. 0. 0. 0. 0. 0. 0. 0. 0.],0.0,0.0,0.0,[0. 0. 0. 0. 0. 0. 0. 0. 0.],-1.9140625,-0.3046875,9.58203125,[0. 0. 0. 0. 0. 0. 0. 0. 0.]
1742664207051213957,1742664207,40341307,imu_link,-0.01556396484375,0.09832763671875,-0.0009765625,0.99505615234375,[0. 0. 0. 0. 0. 0. 0. 0. 0.],0.0,0.0,0.0,[0. 0. 0. 0. 0. 0. 0. 0. 0.],-1.9140625,-0.3046875,9.58203125,[0. 0. 0. 0. 0. 0. 0. 0. 0.]
1742664207077398335,1742664207,60378449,imu_link,-0.01556396484375,0.09832763671875,-0.0009765625,0.99505615234375,[0. 0. 0. 0. 0. 0. 0. 0. 0.],0.0,0.0,0.0,[0. 0. 0. 0. 0. 0. 0. 0. 0.],-1.9140625,-0.3046875,9.54296875,[0. 0. 0. 0. 0. 0. 0. 0. 0.]
1742664207081971211,1742664207,80240035,imu_link,-0.01556396484375,0.09832763671875,-0.0009765625,0.99505615234375,[0. 0. 0. 0. 0. 0. 0. 0. 0.],0.0,0.0,0.0,[0. 0. 0. 0. 0. 0. 0. 0. 0.],-1.9140625,-0.3046875,9.54296875,[0. 0. 0. 0. 0. 0. 0. 0. 0.]
1742664207102284169,1742664207,100382826,imu_link,-0.01556396484375,0.09832763671875,-0.0009765625,0.99505615234375,[0. 0. 0. 0. 0. 0. 0. 0. 0.],0.0,0.0,0.0,[0. 0. 0. 0. 0. 0. 0. 0. 0.],-1.9140625,-0.3046875,9.54296875,[0. 0. 0. 0. 0. 0. 0. 0. 0.]
1742664207122249996,1742664207,120405079,imu_link,-0.01556396484375,0.09832763671875,-0.0009765625,0.99505615234375,[0. 0. 0. 0. 0. 0. 0. 0. 0.],0.0,0.0,0.0,[0. 0. 0. 0. 0. 0. 0. 0. 0.],-1.9140625,-0.3046875,9.58203125,[0. 0. 0. 0. 0. 0. 0. 0. 0.]
1742664207151026777,1742664207,140380980,imu_link,-0.01556396484375,0.09832763671875,-0.0009765625,0.99505615234375,[0. 0. 0. 0. 0. 0. 0. 0. 0.],0.0,0.0,0.0,[0. 0. 0. 0. 0. 0. 0. 0. 0.],-1.9140625,-0.3046875,9.58203125,[0. 0. 0. 0. 0. 0. 0. 0. 0.]
1742664207176657393,1742664207,160310233,imu_link,-0.01556396484375,0.09832763671875,-0.0009765625,0.99505615234375,[0. 0. 0. 0. 0. 0. 0. 0. 0.],0.0,0.0,0.0,[0. 0. 0. 0. 0. 0. 0. 0. 0.],-1.9140625,-0.3046875,9.58203125,[0. 0. 0. 0. 0. 0. 0. 0. 0.]
1742664207182016236,1742664207,180280060,imu_link,-0.01556396484375,0.09832763671875,-0.0009765625,0.99505615234375,[0. 0. 0. 0. 0. 0. 0. 0. 0.],0.0,0.0,0.0,[0. 0. 0. 0. 0. 0. 0. 0. 0.],-1.9140625,-0.3046875,9.58203125,[0. 0. 0. 0. 0. 0. 0. 0. 0.]
1742664207214898871,1742664207,200504814,imu_link,-0.01556396484375,0.09832763671875,-0.0009765625,0.99505615234375,[0. 0. 0. 0. 0. 0. 0. 0. 0.],0.0,0.0,0.0,[0. 0. 0. 0. 0. 0. 0. 0. 0.],-1.9140625,-0.3046875,9.58203125,[0. 0. 0. 0. 0. 0. 0. 0. 0.]
1742664207222448577,1742664207,220512975,imu_link,-0.01556396484375,0.09832763671875,-0.0009765625,0.99505615234375,[0. 0. 0. 0. 0. 0. 0. 0. 0.],0.0,0.0,0.0,[0. 0. 0. 0. 0. 0. 0. 0. 0.],-1.9140625,-0.3046875,9.58203125,[0. 0. 0. 0. 0. 0. 0. 0. 0.]
1742664207251073542,1742664207,240389431,imu_link,-0.01556396484375,0.09832763671875,-0.0009765625,0.99505615234375,[0. 0. 0. 0. 0. 0. 0. 0. 0.],0.0,0.0,0.0,[0. 0. 0. 0. 0. 0. 0. 0. 0.],-1.9140625,-0.3046875,9.58203125,[0. 0. 0. 0. 0. 0. 0. 0. 0.]
1742664207273011806,1742664207,260314165,imu_link,-0.01556396484375,0.09832763671875,-0.0009765625,0.99505615234375,[0. 0. 0. 0. 0. 0. 0. 0. 0.],0.0,0.0,0.0,[0. 0. 0. 0. 0. 0. 0. 0. 0.],-1.9140625,-0.3046875,9.58203125,[0. 0. 0. 0. 0. 0. 0. 0. 0.]
1742664207282159576,1742664207,280328955,imu_link,-0.01556396484375,0.09832763671875,-0.0009765625,0.99505615234375,[0. 0. 0. 0. 0. 0. 0. 0. 0.],0.0,0.0,0.0,[0. 0. 0. 0. 0. 0. 0. 0. 0.],-1.9140625,-0.3046875,9.58203125,[0. 0. 0. 0. 0. 0. 0. 0. 0.]
1742664207317038629,1742664207,300314986,imu_link,-0.01556396484375,0.098388671875,-0.0009765625,0.99505615234375,[0. 0. 0. 0. 0. 0. 0. 0. 0.],0.0,0.0,0.0,[0. 0. 0. 0. 0. 0. 0. 0. 0.],-1.9140625,-0.3046875,9.58203125,[0. 0. 0. 0. 0. 0. 0. 0. 0.]
1742664207322003507,1742664207,320274702,imu_link,-0.01556396484375,0.098388671875,-0.0009765625,0.99505615234375,[0. 0. 0. 0. 0. 0. 0. 0. 0.],0.0,0.0,0.0,[0. 0. 0. 0. 0. 0. 0. 0. 0.],-1.9140625,-0.3046875,9.58203125,[0. 0. 0. 0. 0. 0. 0. 0. 0.]
1742664207350998104,1742664207,340361529,imu_link,-0.01556396484375,0.098388671875,-0.0009765625,0.99505615234375,[0. 0. 0. 0. 0. 0. 0. 0. 0.],0.0,0.0,0.0,[0. 0. 0. 0. 0. 0. 0. 0. 0.],-1.87890625,-0.3046875,9.578125,[0. 0. 0. 0. 0. 0. 0. 0. 0.]
1742664207367481949,1742664207,364087061,imu_link,-0.01556396484375,0.098388671875,-0.0009765625,0.99505615234375,[0. 0. 0. 0. 0. 0. 0. 0. 0.],0.0,0.0,0.0,[0. 0. 0. 0. 0. 0. 0. 0. 0.],-1.9140625,-0.3046875,9.58203125,[0. 0. 0. 0. 0. 0. 0. 0. 0.]
1742664207390264643,1742664207,380384147,imu_link,-0.01556396484375,0.098388671875,-0.0009765625,0.99505615234375,[0. 0. 0. 0. 0. 0. 0. 0. 0.],0.0,0.0,0.0,[0. 0. 0. 0. 0. 0. 0. 0. 0.],-1.9140625,-0.3046875,9.58203125,[0. 0. 0. 0. 0. 0. 0. 0. 0.]
1742664207402085483,1742664207,400312029,imu_link,-0.01556396484375,0.098388671875,-0.0009765625,0.99505615234375,[0. 0. 0. 0. 0. 0. 0. 0. 0.],0.0,0.0,0.0,[0. 0. 0. 0. 0. 0. 0. 0. 0.],-1.9140625,-0.3046875,9.58203125,[0. 0. 0. 0. 0. 0. 0. 0. 0.]
1742664207427109485,1742664207,420371894,imu_link,-0.01556396484375,0.098388671875,-0.0009765625,0.99505615234375,[0. 0. 0. 0. 0. 0. 0. 0. 0.],0.0,0.0,0.0,[0. 0. 0. 0. 0. 0. 0. 0. 0.],-1.9140625,-0.3046875,9.58203125,[0. 0. 0. 0. 0. 0. 0. 0. 0.]
1742664207447051719,1742664207,440345795,imu_link,-0.01556396484375,0.098388671875,-0.0009765625,0.99505615234375,[0. 0. 0. 0. 0. 0. 0. 0. 0.],0.0,0.0,0.0,[0. 0. 0. 0. 0. 0. 0. 0. 0.],-1.9140625,-0.3046875,9.58203125,[0. 0. 0. 0. 0. 0. 0. 0. 0.]
1742664207472960336,1742664207,460434271,imu_link,-0.01556396484375,0.098388671875,-0.0009765625,0.99505615234375,[0. 0. 0. 0. 0. 0. 0. 0. 0.],0.0,0.0,0.0,[0. 0. 0. 0. 0. 0. 0. 0. 0.],-1.9140625,-0.3046875,9.58203125,[0. 0. 0. 0. 0. 0. 0. 0. 0.]
1742664207490756559,1742664207,480292967,imu_link,-0.01556396484375,0.098388671875,-0.0009765625,0.99505615234375,[0. 0. 0. 0. 0. 0. 0. 0. 0.],0.0,0.0,0.0,[0. 0. 0. 0. 0. 0. 0. 0. 0.],-1.9140625,-0.3046875,9.58203125,[0. 0. 0. 0. 0. 0. 0. 0. 0.]
1742664207512481340,1742664207,500359443,imu_link,-0.01556396484375,0.098388671875,-0.0009765625,0.99505615234375,[0. 0. 0. 0. 0. 0. 0. 0. 0.],0.0,0.0,0.0,[0. 0. 0. 0. 0. 0. 0. 0. 0.],-1.9140625,-0.3046875,9.58203125,[0. 0. 0. 0. 0. 0. 0. 0. 0.]
1742664207523513009,1742664207,520892940,imu_link,-0.01556396484375,0.098388671875,-0.0009765625,0.99505615234375,[0. 0. 0. 0. 0. 0. 0. 0. 0.],0.0,0.0,0.0,[0. 0. 0. 0. 0. 0. 0. 0. 0.],-1.9140625,-0.3046875,9.58203125,[0. 0. 0. 0. 0. 0. 0. 0. 0.]
1742664207550258927,1742664207,540362968,imu_link,-0.01556396484375,0.098388671875,-0.0009765625,0.99505615234375,[0. 0. 0. 0. 0. 0. 0. 0. 0.],0.0,0.0,0.0,[0. 0. 0. 0. 0. 0. 0. 0. 0.],-1.9140625,-0.3046875,9.58203125,[0. 0. 0. 0. 0. 0. 0. 0. 0.]
1742664207574737056,1742664207,561162799,imu_link,-0.01556396484375,0.098388671875,-0.0009765625,0.99505615234375,[0. 0. 0. 0. 0. 0. 0. 0. 0.],0.0,0.0,0.0,[0. 0. 0. 0. 0. 0. 0. 0. 0.],-1.9140625,-0.3046875,9.58203125,[0. 0. 0. 0. 0. 0. 0. 0. 0.]
1742664207588116459,1742664207,580801791,imu_link,-0.01556396484375,0.098388671875,-0.0009765625,0.99505615234375,[0. 0. 0. 0. 0. 0. 0. 0. 0.],0.0,0.0,0.0,[0. 0. 0. 0. 0. 0. 0. 0. 0.],-1.9140625,-0.3046875,9.58203125,[0. 0. 0. 0. 0. 0. 0. 0. 0.]
1742664207614980100,1742664207,600341894,imu_link,-0.01556396484375,0.098388671875,-0.0009765625,0.99505615234375,[0. 0. 0. 0. 0. 0. 0. 0. 0.],0.0,0.0,0.0,[0. 0. 0. 0. 0. 0. 0. 0. 0.],-1.9140625,-0.3046875,9.58203125,[0. 0. 0. 0. 0. 0. 0. 0. 0.]
1742664207622069434,1742664207,620294350,imu_link,-0.01556396484375,0.098388671875,-0.0009765625,0.99505615234375,[0. 0. 0. 0. 0. 0. 0. 0. 0.],0.0,0.0,0.0,[0. 0. 0. 0. 0. 0. 0. 0. 0.],-1.9140625,-0.3046875,9.58203125,[0. 0. 0. 0. 0. 0. 0. 0. 0.]
1742664207651319198,1742664207,640375937,imu_link,-0.01556396484375,0.098388671875,-0.0009765625,0.99505615234375,[0. 0. 0. 0. 0. 0. 0. 0. 0.],0.0,0.0,0.0,[0. 0. 0. 0. 0. 0. 0. 0. 0.],-1.9140625,-0.3046875,9.58203125,[0. 0. 0. 0. 0. 0. 0. 0. 0.]
1742664207668679845,1742664207,663779486,imu_link,-0.01556396484375,0.098388671875,-0.0009765625,0.9949951171875,[0. 0. 0. 0. 0. 0. 0. 0. 0.],0.0,0.0,0.0,[0. 0. 0. 0. 0. 0. 0. 0. 0.],-1.9140625,-0.3046875,9.58203125,[0. 0. 0. 0. 0. 0. 0. 0. 0.]
1742664207690047549,1742664207,680302961,imu_link,-0.01556396484375,0.098388671875,-0.0009765625,0.9949951171875,[0. 0. 0. 0. 0. 0. 0. 0. 0.],0.0,0.0,0.0,[0. 0. 0. 0. 0. 0. 0. 0. 0.],-1.9140625,-0.3046875,9.58203125,[0. 0. 0. 0. 0. 0. 0. 0. 0.]
1742664207713730581,1742664207,700500086,imu_link,-0.01556396484375,0.098388671875,-0.0009765625,0.9949951171875,[0. 0. 0. 0. 0. 0. 0. 0. 0.],0.0,0.0,0.0,[0. 0. 0. 0. 0. 0. 0. 0. 0.],-1.9140625,-0.3046875,9.58203125,[0. 0. 0. 0. 0. 0. 0. 0. 0.]
1742664207722142181,1742664207,720286134,imu_link,-0.01556396484375,0.098388671875,-0.0009765625,0.9949951171875,[0. 0. 0. 0. 0. 0. 0. 0. 0.],0.0,0.0,0.0,[0. 0. 0. 0. 0. 0. 0. 0. 0.],-1.9140625,-0.3046875,9.58203125,[0. 0. 0. 0. 0. 0. 0. 0. 0.]
1742664207750198495,1742664207,740381610,imu_link,-0.01556396484375,0.098388671875,-0.0009765625,0.9949951171875,[0. 0. 0. 0. 0. 0. 0. 0. 0.],0.0,0.0,0.0,[0. 0. 0. 0. 0. 0. 0. 0. 0.],-1.9140625,-0.3046875,9.58203125,[0. 0. 0. 0. 0. 0. 0. 0. 0.]
1742664207764640293,1742664207,761831556,imu_link,-0.01556396484375,0.098388671875,-0.0009765625,0.9949951171875,[0. 0. 0. 0. 0. 0. 0. 0. 0.],0.0,0.0,0.0,[0. 0. 0. 0. 0. 0. 0. 0. 0.],-1.9140625,-0.3046875,9.58203125,[0. 0. 0. 0. 0. 0. 0. 0. 0.]
1742664207787162670,1742664207,780376079,imu_link,-0.01556396484375,0.098388671875,-0.0009765625,0.9949951171875,[0. 0. 0. 0. 0. 0. 0. 0. 0.],0.0,0.0,0.0,[0. 0. 0. 0. 0. 0. 0. 0. 0.],-1.9140625,-0.3046875,9.58203125,[0. 0. 0. 0. 0. 0. 0. 0. 0.]
1742664207813691402,1742664207,800324461,imu_link,-0.01556396484375,0.098388671875,-0.0009765625,0.9949951171875,[0. 0. 0. 0. 0. 0. 0. 0. 0.],0.0,0.0,0.0,[0. 0. 0. 0. 0. 0. 0. 0. 0.],-1.9140625,-0.3046875,9.58203125,[0. 0. 0. 0. 0. 0. 0. 0. 0.]
1742664207822753098,1742664207,820298159,imu_link,-0.01556396484375,0.098388671875,-0.0009765625,0.9949951171875,[0. 0. 0. 0. 0. 0. 0. 0. 0.],0.0,0.0,0.0,[0. 0. 0. 0. 0. 0. 0. 0. 0.],-1.9140625,-0.3046875,9.58203125,[0. 0. 0. 0. 0. 0. 0. 0. 0.]
1742664207861166392,1742664207,840918860,imu_link,-0.01556396484375,0.098388671875,-0.00091552734375,0.9949951171875,[0. 0. 0. 0. 0. 0. 0. 0. 0.],0.0,0.0,0.0,[0. 0. 0. 0. 0. 0. 0. 0. 0.],-1.9140625,-0.3046875,9.58203125,[0. 0. 0. 0. 0. 0. 0. 0. 0.]
1742664207870438681,1742664207,868651839,imu_link,-0.01556396484375,0.098388671875,-0.00091552734375,0.9949951171875,[0. 0. 0. 0. 0. 0. 0. 0. 0.],0.0,0.0,0.0,[0. 0. 0. 0. 0. 0. 0. 0. 0.],-1.9140625,-0.3046875,9.58203125,[0. 0. 0. 0. 0. 0. 0. 0. 0.]
1742664207887821680,1742664207,880366585,imu_link,-0.01556396484375,0.098388671875,-0.00091552734375,0.9949951171875,[0. 0. 0. 0. 0. 0. 0. 0. 0.],0.0,0.0,0.0,[0. 0. 0. 0. 0. 0. 0. 0. 0.],-1.9140625,-0.3046875,9.58203125,[0. 0. 0. 0. 0. 0. 0. 0. 0.]
1742664207914771469,1742664207,900300968,imu_link,-0.01556396484375,0.098388671875,-0.00091552734375,0.9949951171875,[0. 0. 0. 0. 0. 0. 0. 0. 0.],0.0,0.0,0.0,[0. 0. 0. 0. 0. 0. 0. 0. 0.],-1.87890625,-0.3046875,9.578125,[0. 0. 0. 0. 0. 0. 0. 0. 0.]
1742664207922755437,1742664207,920284295,imu_link,-0.01556396484375,0.098388671875,-0.00091552734375,0.9949951171875,[0. 0. 0. 0. 0. 0. 0. 0. 0.],0.0,0.0,0.0,[0. 0. 0. 0. 0. 0. 0. 0. 0.],-1.87890625,-0.3046875,9.578125,[0. 0. 0. 0. 0. 0. 0. 0. 0.]
1742664207947716383,1742664207,940295714,imu_link,-0.01556396484375,0.098388671875,-0.00091552734375,0.9949951171875,[0. 0. 0. 0. 0. 0. 0. 0. 0.],0.0,0.0,0.0,[0. 0. 0. 0. 0. 0. 0. 0. 0.],-1.9140625,-0.3046875,9.58203125,[0. 0. 0. 0. 0. 0. 0. 0. 0.]
1742664207976490015,1742664207,960576821,imu_link,-0.01556396484375,0.098388671875,-0.00091552734375,0.9949951171875,[0. 0. 0. 0. 0. 0. 0. 0. 0.],0.0,0.0,0.0,[0. 0. 0. 0. 0. 0. 0. 0. 0.],-1.9140625,-0.3046875,9.58203125,[0. 0. 0. 0. 0. 0. 0. 0. 0.]
1742664207986415493,1742664207,980272424,imu_link,-0.01556396484375,0.098388671875,-0.00091552734375,0.9949951171875,[0. 0. 0. 0. 0. 0. 0. 0. 0.],0.0,0.0,0.0,[0. 0. 0. 0. 0. 0. 0. 0. 0.],-1.9140625,-0.3046875,9.58203125,[0. 0. 0. 0. 0. 0. 0. 0. 0.]
1742664208012330204,1742664208,326511,imu_link,-0.01556396484375,0.098388671875,-0.00091552734375,0.9949951171875,[0. 0. 0. 0. 0. 0. 0. 0. 0.],0.0,0.0,0.0,[0. 0. 0. 0. 0. 0. 0. 0. 0.],-1.9140625,-0.3046875,9.58203125,[0. 0. 0. 0. 0. 0. 0. 0. 0.]
1742664208027887748,1742664208,20444894,imu_link,-0.01556396484375,0.098388671875,-0.00091552734375,0.9949951171875,[0. 0. 0. 0. 0. 0. 0. 0. 0.],0.0,0.0,0.0,[0. 0. 0. 0. 0. 0. 0. 0. 0.],-1.9140625,-0.3046875,9.58203125,[0. 0. 0. 0. 0. 0. 0. 0. 0.]
1742664208047567462,1742664208,40293165,imu_link,-0.01556396484375,0.098388671875,-0.00091552734375,0.9949951171875,[0. 0. 0. 0. 0. 0. 0. 0. 0.],0.0,0.0,0.0,[0. 0. 0. 0. 0. 0. 0. 0. 0.],-1.9140625,-0.3046875,9.58203125,[0. 0. 0. 0. 0. 0. 0. 0. 0.]
1742664208075582109,1742664208,60511882,imu_link,-0.01556396484375,0.098388671875,-0.00091552734375,0.9949951171875,[0. 0. 0. 0. 0. 0. 0. 0. 0.],0.0,0.0,0.0,[0. 0. 0. 0. 0. 0. 0. 0. 0.],-1.9140625,-0.3046875,9.58203125,[0. 0. 0. 0. 0. 0. 0. 0. 0.]
1742664208091292692,1742664208,80305653,imu_link,-0.01556396484375,0.098388671875,-0.00091552734375,0.9949951171875,[0. 0. 0. 0. 0. 0. 0. 0. 0.],0.0,0.0,0.0,[0. 0. 0. 0. 0. 0. 0. 0. 0.],-1.9140625,-0.3046875,9.58203125,[0. 0. 0. 0. 0. 0. 0. 0. 0.]
1742664208112661193,1742664208,100333795,imu_link,-0.01556396484375,0.098388671875,-0.00091552734375,0.9949951171875,[0. 0. 0. 0. 0. 0. 0. 0. 0.],0.0,0.0,0.0,[0. 0. 0. 0. 0. 0. 0. 0. 0.],-1.9140625,-0.3046875,9.58203125,[0. 0. 0. 0. 0. 0. 0. 0. 0.]
1742664208123266619,1742664208,120276270,imu_link,-0.01556396484375,0.098388671875,-0.00091552734375,0.9949951171875,[0. 0. 0. 0. 0. 0. 0. 0. 0.],0.0,0.0,0.0,[0. 0. 0. 0. 0. 0. 0. 0. 0.],-1.9140625,-0.3046875,9.58203125,[0. 0. 0. 0. 0. 0. 0. 0. 0.]
1742664208161918822,1742664208,140380412,imu_link,-0.01556396484375,0.098388671875,-0.00091552734375,0.9949951171875,[0. 0. 0. 0. 0. 0. 0. 0. 0.],0.0,0.0,0.0,[0. 0. 0. 0. 0. 0. 0. 0. 0.],-1.9140625,-0.3046875,9.58203125,[0. 0. 0. 0. 0. 0. 0. 0. 0.]
1742664208168920025,1742664208,164828930,imu_link,-0.01556396484375,0.098388671875,-0.00091552734375,0.9949951171875,[0. 0. 0. 0. 0. 0. 0. 0. 0.],0.0,0.0,0.0,[0. 0. 0. 0. 0. 0. 0. 0. 0.],-1.9140625,-0.3046875,9.58203125,[0. 0. 0. 0. 0. 0. 0. 0. 0.]
1742664208190883622,1742664208,180353770,imu_link,-0.01556396484375,0.098388671875,-0.00091552734375,0.9949951171875,[0. 0. 0. 0. 0. 0. 0. 0. 0.],0.0,0.0,0.0,[0. 0. 0. 0. 0. 0. 0. 0. 0.],-1.9140625,-0.3046875,9.58203125,[0. 0. 0. 0. 0. 0. 0. 0. 0.]
1742664208217166556,1742664208,200586191,imu_link,-0.01556396484375,0.098388671875,-0.00091552734375,0.9949951171875,[0. 0. 0. 0. 0. 0. 0. 0. 0.],0.0,0.0,0.0,[0. 0. 0. 0. 0. 0. 0. 0. 0.],-1.9140625,-0.3046875,9.58203125,[0. 0. 0. 0. 0. 0. 0. 0. 0.]
1742664208223274847,1742664208,220284165,imu_link,-0.01556396484375,0.098388671875,-0.00091552734375,0.9949951171875,[0. 0. 0. 0. 0. 0. 0. 0. 0.],0.0,0.0,0.0,[0. 0. 0. 0. 0. 0. 0. 0. 0.],-1.9140625,-0.3046875,9.58203125,[0. 0. 0. 0. 0. 0. 0. 0. 0.]
1742664208251088308,1742664208,240386567,imu_link,-0.01556396484375,0.098388671875,-0.00091552734375,0.9949951171875,[0. 0. 0. 0. 0. 0. 0. 0. 0.],0.0,0.0,0.0,[0. 0. 0. 0. 0. 0. 0. 0. 0.],-1.9140625,-0.3046875,9.58203125,[0. 0. 0. 0. 0. 0. 0. 0. 0.]
1742664208266454981,1742664208,263088538,imu_link,-0.01556396484375,0.098388671875,-0.00091552734375,0.9949951171875,[0. 0. 0. 0. 0. 0. 0. 0. 0.],0.0,0.0,0.0,[0. 0. 0. 0. 0. 0. 0. 0. 0.],-1.9140625,-0.3046875,9.58203125,[0. 0. 0. 0. 0. 0. 0. 0. 0.]
1742664208290876387,1742664208,280349258,imu_link,-0.01556396484375,0.098388671875,-0.00091552734375,0.9949951171875,[0. 0. 0. 0. 0. 0. 0. 0. 0.],0.0,0.0,0.0,[0. 0. 0. 0. 0. 0. 0. 0. 0.],-1.9140625,-0.3046875,9.58203125,[0. 0. 0. 0. 0. 0. 0. 0. 0.]
1742664208314811587,1742664208,300418122,imu_link,-0.01556396484375,0.098388671875,-0.00091552734375,0.9949951171875,[0. 0. 0. 0. 0. 0. 0. 0. 0.],0.0,0.0,0.0,[0. 0. 0. 0. 0. 0. 0. 0. 0.],-1.9140625,-0.3046875,9.58203125,[0. 0. 0. 0. 0. 0. 0. 0. 0.]
1742664208323368446,1742664208,320295449,imu_link,-0.01556396484375,0.098388671875,-0.00091552734375,0.9949951171875,[0. 0. 0. 0. 0. 0. 0. 0. 0.],0.0,0.0,0.0,[0. 0. 0. 0. 0. 0. 0. 0. 0.],-1.9140625,-0.3046875,9.58203125,[0. 0. 0. 0. 0. 0. 0. 0. 0.]
1742664208361976760,1742664208,340352369,imu_link,-0.01556396484375,0.098388671875,-0.00091552734375,0.9949951171875,[0. 0. 0. 0. 0. 0. 0. 0. 0.],0.0,0.0,0.0,[0. 0. 0. 0. 0. 0. 0. 0. 0.],-1.9140625,-0.3046875,9.58203125,[0. 0. 0. 0. 0. 0. 0. 0. 0.]
1742664208370472120,1742664208,364627718,imu_link,-0.01556396484375,0.098388671875,-0.00091552734375,0.9949951171875,[0. 0. 0. 0. 0. 0. 0. 0. 0.],0.0,0.0,0.0,[0. 0. 0. 0. 0. 0. 0. 0. 0.],-1.9140625,-0.3046875,9.58203125,[0. 0. 0. 0. 0. 0. 0. 0. 0.]
1742664208388419547,1742664208,381036119,imu_link,-0.01556396484375,0.098388671875,-0.00091552734375,0.9949951171875,[0. 0. 0. 0. 0. 0. 0. 0. 0.],0.0,0.0,0.0,[0. 0. 0. 0. 0. 0. 0. 0. 0.],-1.9140625,-0.3046875,9.58203125,[0. 0. 0. 0. 0. 0. 0. 0. 0.]
1742664208414347850,1742664208,400615444,imu_link,-0.01556396484375,0.09844970703125,-0.00091552734375,0.9949951171875,[0. 0. 0. 0. 0. 0. 0. 0. 0.],0.0,0.0,0.0,[0. 0. 0. 0. 0. 0. 0. 0. 0.],-1.9140625,-0.3046875,9.58203125,[0. 0. 0. 0. 0. 0. 0. 0. 0.]
1742664208423689769,1742664208,420311492,imu_link,-0.01556396484375,0.09844970703125,-0.00091552734375,0.9949951171875,[0. 0. 0. 0. 0. 0. 0. 0. 0.],0.0,0.0,0.0,[0. 0. 0. 0. 0. 0. 0. 0. 0.],-1.9140625,-0.3046875,9.58203125,[0. 0. 0. 0. 0. 0. 0. 0. 0.]
1742664208460955798,1742664208,440342523,imu_link,-0.01556396484375,0.09844970703125,-0.00091552734375,0.9949951171875,[0. 0. 0. 0. 0. 0. 0. 0. 0.],0.0,0.0,0.0,[0. 0. 0. 0. 0. 0. 0. 0. 0.],-1.9140625,-0.3046875,9.58203125,[0. 0. 0. 0. 0. 0. 0. 0. 0.]
1742664208469962938,1742664208,468154354,imu_link,-0.01556396484375,0.09844970703125,-0.00091552734375,0.9949951171875,[0. 0. 0. 0. 0. 0. 0. 0. 0.],0.0,0.0,0.0,[0. 0. 0. 0. 0. 0. 0. 0. 0.],-1.9140625,-0.3046875,9.58203125,[0. 0. 0. 0. 0. 0. 0. 0. 0.]
1742664208488314219,1742664208,480299399,imu_link,-0.01556396484375,0.09844970703125,-0.00091552734375,0.9949951171875,[0. 0. 0. 0. 0. 0. 0. 0. 0.],0.0,0.0,0.0,[0. 0. 0. 0. 0. 0. 0. 0. 0.],-1.9140625,-0.3046875,9.58203125,[0. 0. 0. 0. 0. 0. 0. 0. 0.]
1742664208514855914,1742664208,500423616,imu_link,-0.01556396484375,0.09844970703125,-0.00091552734375,0.9949951171875,[0. 0. 0. 0. 0. 0. 0. 0. 0.],0.0,0.0,0.0,[0. 0. 0. 0. 0. 0. 0. 0. 0.],-1.9140625,-0.3046875,9.58203125,[0. 0. 0. 0. 0. 0. 0. 0. 0.]
1742664208527789852,1742664208,520411388,imu_link,-0.01556396484375,0.09844970703125,-0.00091552734375,0.9949951171875,[0. 0. 0. 0. 0. 0. 0. 0. 0.],0.0,0.0,0.0,[0. 0. 0. 0. 0. 0. 0. 0. 0.],-1.9140625,-0.3046875,9.58203125,[0. 0. 0. 0. 0. 0. 0. 0. 0.]
1742664208548185070,1742664208,540304362,imu_link,-0.01556396484375,0.09844970703125,-0.00091552734375,0.9949951171875,[0. 0. 0. 0. 0. 0. 0. 0. 0.],0.0,0.0,0.0,[0. 0. 0. 0. 0. 0. 0. 0. 0.],-1.9140625,-0.3046875,9.58203125,[0. 0. 0. 0. 0. 0. 0. 0. 0.]
1742664208575601788,1742664208,560395190,imu_link,-0.01556396484375,0.09844970703125,-0.00091552734375,0.9949951171875,[0. 0. 0. 0. 0. 0. 0. 0. 0.],0.0,0.0,0.0,[0. 0. 0. 0. 0. 0. 0. 0. 0.],-1.9140625,-0.3046875,9.58203125,[0. 0. 0. 0. 0. 0. 0. 0. 0.]
1742664208591628280,1742664208,580285146,imu_link,-0.01556396484375,0.09844970703125,-0.00091552734375,0.9949951171875,[0. 0. 0. 0. 0. 0. 0. 0. 0.],0.0,0.0,0.0,[0. 0. 0. 0. 0. 0. 0. 0. 0.],-1.9140625,-0.3046875,9.58203125,[0. 0. 0. 0. 0. 0. 0. 0. 0.]
1742664208613883563,1742664208,600419456,imu_link,-0.01556396484375,0.09844970703125,-0.00091552734375,0.9949951171875,[0. 0. 0. 0. 0. 0. 0. 0. 0.],0.0,0.0,0.0,[0. 0. 0. 0. 0. 0. 0. 0. 0.],-1.9140625,-0.3046875,9.58203125,[0. 0. 0. 0. 0. 0. 0. 0. 0.]
1742664208627767284,1742664208,620283634,imu_link,-0.01556396484375,0.09844970703125,-0.00091552734375,0.9949951171875,[0. 0. 0. 0. 0. 0. 0. 0. 0.],0.0,0.0,0.0,[0. 0. 0. 0. 0. 0. 0. 0. 0.],-1.9140625,-0.3046875,9.58203125,[0. 0. 0. 0. 0. 0. 0. 0. 0.]
1742664208643822498,1742664208,640330054,imu_link,-0.01556396484375,0.09844970703125,-0.00091552734375,0.9949951171875,[0. 0. 0. 0. 0. 0. 0. 0. 0.],0.0,0.0,0.0,[0. 0. 0. 0. 0. 0. 0. 0. 0.],-1.9140625,-0.3046875,9.58203125,[0. 0. 0. 0. 0. 0. 0. 0. 0.]
1742664208675534609,1742664208,660406696,imu_link,-0.01556396484375,0.09844970703125,-0.00091552734375,0.9949951171875,[0. 0. 0. 0. 0. 0. 0. 0. 0.],0.0,0.0,0.0,[0. 0. 0. 0. 0. 0. 0. 0. 0.],-1.9140625,-0.3046875,9.58203125,[0. 0. 0. 0. 0. 0. 0. 0. 0.]
1742664208691172932,1742664208,680314838,imu_link,-0.01556396484375,0.09844970703125,-0.00091552734375,0.9949951171875,[0. 0. 0. 0. 0. 0. 0. 0. 0.],0.0,0.0,0.0,[0. 0. 0. 0. 0. 0. 0. 0. 0.],-1.9140625,-0.3046875,9.58203125,[0. 0. 0. 0. 0. 0. 0. 0. 0.]
1742664208718124610,1742664208,700576370,imu_link,-0.01556396484375,0.09844970703125,-0.00091552734375,0.9949951171875,[0. 0. 0. 0. 0. 0. 0. 0. 0.],0.0,0.0,0.0,[0. 0. 0. 0. 0. 0. 0. 0. 0.],-1.9140625,-0.3046875,9.58203125,[0. 0. 0. 0. 0. 0. 0. 0. 0.]
1742664208723667213,1742664208,720296066,imu_link,-0.01556396484375,0.09844970703125,-0.00091552734375,0.9949951171875,[0. 0. 0. 0. 0. 0. 0. 0. 0.],0.0,0.0,0.0,[0. 0. 0. 0. 0. 0. 0. 0. 0.],-1.9140625,-0.3046875,9.58203125,[0. 0. 0. 0. 0. 0. 0. 0. 0.]
1742664208760807816,1742664208,740391042,imu_link,-0.01556396484375,0.09844970703125,-0.00091552734375,0.9949951171875,[0. 0. 0. 0. 0. 0. 0. 0. 0.],0.0,0.0,0.0,[0. 0. 0. 0. 0. 0. 0. 0. 0.],-1.9140625,-0.3046875,9.58203125,[0. 0. 0. 0. 0. 0. 0. 0. 0.]
1742664208766895884,1742664208,763531052,imu_link,-0.01556396484375,0.09844970703125,-0.00091552734375,0.9949951171875,[0. 0. 0. 0. 0. 0. 0. 0. 0.],0.0,0.0,0.0,[0. 0. 0. 0. 0. 0. 0. 0. 0.],-1.9140625,-0.3046875,9.58203125,[0. 0. 0. 0. 0. 0. 0. 0. 0.]
1742664208792347166,1742664208,780376289,imu_link,-0.01556396484375,0.09844970703125,-0.00091552734375,0.9949951171875,[0. 0. 0. 0. 0. 0. 0. 0. 0.],0.0,0.0,0.0,[0. 0. 0. 0. 0. 0. 0. 0. 0.],-1.9140625,-0.3046875,9.58203125,[0. 0. 0. 0. 0. 0. 0. 0. 0.]
1742664208817658169,1742664208,800499116,imu_link,-0.01556396484375,0.09844970703125,-0.00091552734375,0.9949951171875,[0. 0. 0. 0. 0. 0. 0. 0. 0.],0.0,0.0,0.0,[0. 0. 0. 0. 0. 0. 0. 0. 0.],-1.9140625,-0.3046875,9.58203125,[0. 0. 0. 0. 0. 0. 0. 0. 0.]
1742664208823742423,1742664208,820346035,imu_link,-0.01556396484375,0.09844970703125,-0.00091552734375,0.9949951171875,[0. 0. 0. 0. 0. 0. 0. 0. 0.],0.0,0.0,0.0,[0. 0. 0. 0. 0. 0. 0. 0. 0.],-1.9140625,-0.3046875,9.58203125,[0. 0. 0. 0. 0. 0. 0. 0. 0.]
1742664208862647165,1742664208,840412437,imu_link,-0.01556396484375,0.09844970703125,-0.00091552734375,0.9949951171875,[0. 0. 0. 0. 0. 0. 0. 0. 0.],0.0,0.0,0.0,[0. 0. 0. 0. 0. 0. 0. 0. 0.],-1.9140625,-0.3046875,9.58203125,[0. 0. 0. 0. 0. 0. 0. 0. 0.]
1742664208867476690,1742664208,865261456,imu_link,-0.01556396484375,0.09844970703125,-0.00091552734375,0.9949951171875,[0. 0. 0. 0. 0. 0. 0. 0. 0.],0.0,0.0,0.0,[0. 0. 0. 0. 0. 0. 0. 0. 0.],-1.9140625,-0.3046875,9.58203125,[0. 0. 0. 0. 0. 0. 0. 0. 0.]
1742664208892431376,1742664208,880381498,imu_link,-0.01556396484375,0.09844970703125,-0.00091552734375,0.9949951171875,[0. 0. 0. 0. 0. 0. 0. 0. 0.],0.0,0.0,0.0,[0. 0. 0. 0. 0. 0. 0. 0. 0.],-1.9140625,-0.3046875,9.58203125,[0. 0. 0. 0. 0. 0. 0. 0. 0.]
1742664208914288158,1742664208,900483696,imu_link,-0.01556396484375,0.09844970703125,-0.00091552734375,0.9949951171875,[0. 0. 0. 0. 0. 0. 0. 0. 0.],0.0,0.0,0.0,[0. 0. 0. 0. 0. 0. 0. 0. 0.],-1.9140625,-0.3046875,9.58203125,[0. 0. 0. 0. 0. 0. 0. 0. 0.]
1742664208923699559,1742664208,920285226,imu_link,-0.01556396484375,0.09844970703125,-0.00091552734375,0.9949951171875,[0. 0. 0. 0. 0. 0. 0. 0. 0.],0.0,0.0,0.0,[0. 0. 0. 0. 0. 0. 0. 0. 0.],-1.9140625,-0.3046875,9.58203125,[0. 0. 0. 0. 0. 0. 0. 0. 0.]
1742664208961702925,1742664208,940368109,imu_link,-0.01556396484375,0.09844970703125,-0.00091552734375,0.9949951171875,[0. 0. 0. 0. 0. 0. 0. 0. 0.],0.0,0.0,0.0,[0. 0. 0. 0. 0. 0. 0. 0. 0.],-1.9140625,-0.3046875,9.58203125,[0. 0. 0. 0. 0. 0. 0. 0. 0.]
1742664208970866214,1742664208,964362161,imu_link,-0.01556396484375,0.09844970703125,-0.00091552734375,0.9949951171875,[0. 0. 0. 0. 0. 0. 0. 0. 0.],0.0,0.0,0.0,[0. 0. 0. 0. 0. 0. 0. 0. 0.],-1.9140625,-0.3046875,9.58203125,[0. 0. 0. 0. 0. 0. 0. 0. 0.]
1742664208987558764,1742664208,980281263,imu_link,-0.01556396484375,0.09844970703125,-0.00091552734375,0.9949951171875,[0. 0. 0. 0. 0. 0. 0. 0. 0.],0.0,0.0,0.0,[0. 0. 0. 0. 0. 0. 0. 0. 0.],-1.9140625,-0.3046875,9.58203125,[0. 0. 0. 0. 0. 0. 0. 0. 0.]
1742664209015043742,1742664209,742926,imu_link,-0.01556396484375,0.09844970703125,-0.00091552734375,0.9949951171875,[0. 0. 0. 0. 0. 0. 0. 0. 0.],0.0,0.0,0.0,[0. 0. 0. 0. 0. 0. 0. 0. 0.],-1.9140625,-0.3046875,9.58203125,[0. 0. 0. 0. 0. 0. 0. 0. 0.]
1742664209024017345,1742664209,20485863,imu_link,-0.01556396484375,0.09844970703125,-0.00091552734375,0.9949951171875,[0. 0. 0. 0. 0. 0. 0. 0. 0.],0.0,0.0,0.0,[0. 0. 0. 0. 0. 0. 0. 0. 0.],-1.9140625,-0.3046875,9.58203125,[0. 0. 0. 0. 0. 0. 0. 0. 0.]
1742664209066396956,1742664209,40353023,imu_link,-0.01556396484375,0.09844970703125,-0.00091552734375,0.9949951171875,[0. 0. 0. 0. 0. 0. 0. 0. 0.],0.0,0.0,0.0,[0. 0. 0. 0. 0. 0. 0. 0. 0.],-1.9140625,-0.3046875,9.58203125,[0. 0. 0. 0. 0. 0. 0. 0. 0.]
1742664209071254481,1742664209,68206762,imu_link,-0.01556396484375,0.09844970703125,-0.00091552734375,0.9949951171875,[0. 0. 0. 0. 0. 0. 0. 0. 0.],0.0,0.0,0.0,[0. 0. 0. 0. 0. 0. 0. 0. 0.],-1.9140625,-0.3046875,9.58203125,[0. 0. 0. 0. 0. 0. 0. 0. 0.]
1742664209087515715,1742664209,80293677,imu_link,-0.01556396484375,0.09844970703125,-0.00091552734375,0.9949951171875,[0. 0. 0. 0. 0. 0. 0. 0. 0.],0.0,0.0,0.0,[0. 0. 0. 0. 0. 0. 0. 0. 0.],-1.9140625,-0.3046875,9.58203125,[0. 0. 0. 0. 0. 0. 0. 0. 0.]
1742664209114826932,1742664209,100400653,imu_link,-0.01556396484375,0.09844970703125,-0.00091552734375,0.9949951171875,[0. 0. 0. 0. 0. 0. 0. 0. 0.],0.0,0.0,0.0,[0. 0. 0. 0. 0. 0. 0. 0. 0.],-1.9140625,-0.3046875,9.58203125,[0. 0. 0. 0. 0. 0. 0. 0. 0.]
1742664209123084272,1742664209,120291035,imu_link,-0.01556396484375,0.09844970703125,-0.00091552734375,0.9949951171875,[0. 0. 0. 0. 0. 0. 0. 0. 0.],0.0,0.0,0.0,[0. 0. 0. 0. 0. 0. 0. 0. 0.],-1.9140625,-0.3046875,9.58203125,[0. 0. 0. 0. 0. 0. 0. 0. 0.]
1742664209144010900,1742664209,140569067,imu_link,-0.01556396484375,0.09844970703125,-0.00091552734375,0.9949951171875,[0. 0. 0. 0. 0. 0. 0. 0. 0.],0.0,0.0,0.0,[0. 0. 0. 0. 0. 0. 0. 0. 0.],-1.9140625,-0.3046875,9.58203125,[0. 0. 0. 0. 0. 0. 0. 0. 0.]
1742664209174776098,1742664209,160290152,imu_link,-0.01556396484375,0.09844970703125,-0.00091552734375,0.9949951171875,[0. 0. 0. 0. 0. 0. 0. 0. 0.],0.0,0.0,0.0,[0. 0. 0. 0. 0. 0. 0. 0. 0.],-1.9140625,-0.3046875,9.58203125,[0. 0. 0. 0. 0. 0. 0. 0. 0.]
1742664209192142689,1742664209,180285831,imu_link,-0.01556396484375,0.09844970703125,-0.00091552734375,0.9949951171875,[0. 0. 0. 0. 0. 0. 0. 0. 0.],0.0,0.0,0.0,[0. 0. 0. 0. 0. 0. 0. 0. 0.],-1.9140625,-0.3046875,9.58203125,[0. 0. 0. 0. 0. 0. 0. 0. 0.]
1742664209214244231,1742664209,200505752,imu_link,-0.01556396484375,0.09844970703125,-0.00091552734375,0.9949951171875,[0. 0. 0. 0. 0. 0. 0. 0. 0.],0.0,0.0,0.0,[0. 0. 0. 0. 0. 0. 0. 0. 0.],-1.9140625,-0.3046875,9.58203125,[0. 0. 0. 0. 0. 0. 0. 0. 0.]
1742664209227564023,1742664209,220311282,imu_link,-0.01556396484375,0.09844970703125,-0.00091552734375,0.9949951171875,[0. 0. 0. 0. 0. 0. 0. 0. 0.],0.0,0.0,0.0,[0. 0. 0. 0. 0. 0. 0. 0. 0.],-1.9140625,-0.3046875,9.58203125,[0. 0. 0. 0. 0. 0. 0. 0. 0.]
1742664209243890609,1742664209,240452498,imu_link,-0.01556396484375,0.09844970703125,-0.00091552734375,0.9949951171875,[0. 0. 0. 0. 0. 0. 0. 0. 0.],0.0,0.0,0.0,[0. 0. 0. 0. 0. 0. 0. 0. 0.],-1.9140625,-0.3046875,9.58203125,[0. 0. 0. 0. 0. 0. 0. 0. 0.]
1742664209274617678,1742664209,260317047,imu_link,-0.01556396484375,0.09844970703125,-0.00091552734375,0.9949951171875,[0. 0. 0. 0. 0. 0. 0. 0. 0.],0.0,0.0,0.0,[0. 0. 0. 0. 0. 0. 0. 0. 0.],-1.9140625,-0.3046875,9.58203125,[0. 0. 0. 0. 0. 0. 0. 0. 0.]
1742664209292180918,1742664209,280300170,imu_link,-0.01556396484375,0.09844970703125,-0.00091552734375,0.9949951171875,[0. 0. 0. 0. 0. 0. 0. 0. 0.],0.0,0.0,0.0,[0. 0. 0. 0. 0. 0. 0. 0. 0.],-1.9140625,-0.3046875,9.58203125,[0. 0. 0. 0. 0. 0. 0. 0. 0.]
1742664209317448013,1742664209,300386776,imu_link,-0.01556396484375,0.09844970703125,-0.00091552734375,0.9949951171875,[0. 0. 0. 0. 0. 0. 0. 0. 0.],0.0,0.0,0.0,[0. 0. 0. 0. 0. 0. 0. 0. 0.],-1.9140625,-0.3046875,9.58203125,[0. 0. 0. 0. 0. 0. 0. 0. 0.]
1742664209323635305,1742664209,320275973,imu_link,-0.01556396484375,0.09844970703125,-0.00091552734375,0.9949951171875,[0. 0. 0. 0. 0. 0. 0. 0. 0.],0.0,0.0,0.0,[0. 0. 0. 0. 0. 0. 0. 0. 0.],-1.9140625,-0.3046875,9.54296875,[0. 0. 0. 0. 0. 0. 0. 0. 0.]
1742664209361385873,1742664209,340688709,imu_link,-0.01556396484375,0.09844970703125,-0.00091552734375,0.9949951171875,[0. 0. 0. 0. 0. 0. 0. 0. 0.],0.0,0.0,0.0,[0. 0. 0. 0. 0. 0. 0. 0. 0.],-1.9140625,-0.3046875,9.58203125,[0. 0. 0. 0. 0. 0. 0. 0. 0.]
1742664209366196028,1742664209,364061647,imu_link,-0.01556396484375,0.09844970703125,-0.00091552734375,0.9949951171875,[0. 0. 0. 0. 0. 0. 0. 0. 0.],0.0,0.0,0.0,[0. 0. 0. 0. 0. 0. 0. 0. 0.],-1.9140625,-0.3046875,9.58203125,[0. 0. 0. 0. 0. 0. 0. 0. 0.]
1742664209392171257,1742664209,380363510,imu_link,-0.01556396484375,0.09844970703125,-0.00091552734375,0.9949951171875,[0. 0. 0. 0. 0. 0. 0. 0. 0.],0.0,0.0,0.0,[0. 0. 0. 0. 0. 0. 0. 0. 0.],-1.9140625,-0.3046875,9.58203125,[0. 0. 0. 0. 0. 0. 0. 0. 0.]
1742664209417235592,1742664209,400381985,imu_link,-0.01556396484375,0.09844970703125,-0.00091552734375,0.9949951171875,[0. 0. 0. 0. 0. 0. 0. 0. 0.],0.0,0.0,0.0,[0. 0. 0. 0. 0. 0. 0. 0. 0.],-1.9140625,-0.3046875,9.58203125,[0. 0. 0. 0. 0. 0. 0. 0. 0.]
1742664209423690682,1742664209,420292516,imu_link,-0.01556396484375,0.09844970703125,-0.00091552734375,0.9949951171875,[0. 0. 0. 0. 0. 0. 0. 0. 0.],0.0,0.0,0.0,[0. 0. 0. 0. 0. 0. 0. 0. 0.],-1.9140625,-0.3046875,9.58203125,[0. 0. 0. 0. 0. 0. 0. 0. 0.]
1742664209462500015,1742664209,440767345,imu_link,-0.01556396484375,0.09844970703125,-0.00091552734375,0.9949951171875,[0. 0. 0. 0. 0. 0. 0. 0. 0.],0.0,0.0,0.0,[0. 0. 0. 0. 0. 0. 0. 0. 0.],-1.9140625,-0.3046875,9.58203125,[0. 0. 0. 0. 0. 0. 0. 0. 0.]
1742664209466908020,1742664209,465169714,imu_link,-0.01556396484375,0.09844970703125,-0.00091552734375,0.9949951171875,[0. 0. 0. 0. 0. 0. 0. 0. 0.],0.0,0.0,0.0,[0. 0. 0. 0. 0. 0. 0. 0. 0.],-1.9140625,-0.3046875,9.58203125,[0. 0. 0. 0. 0. 0. 0. 0. 0.]
1742664209492472580,1742664209,480283534,imu_link,-0.01556396484375,0.09844970703125,-0.00091552734375,0.9949951171875,[0. 0. 0. 0. 0. 0. 0. 0. 0.],0.0,0.0,0.0,[0. 0. 0. 0. 0. 0. 0. 0. 0.],-1.9140625,-0.3046875,9.58203125,[0. 0. 0. 0. 0. 0. 0. 0. 0.]
1742664209514999438,1742664209,500427418,imu_link,-0.01556396484375,0.09844970703125,-0.00091552734375,0.9949951171875,[0. 0. 0. 0. 0. 0. 0. 0. 0.],0.0,0.0,0.0,[0. 0. 0. 0. 0. 0. 0. 0. 0.],-1.9140625,-0.3046875,9.58203125,[0. 0. 0. 0. 0. 0. 0. 0. 0.]
1742664209523878226,1742664209,520402578,imu_link,-0.01556396484375,0.09844970703125,-0.00091552734375,0.9949951171875,[0. 0. 0. 0. 0. 0. 0. 0. 0.],0.0,0.0,0.0,[0. 0. 0. 0. 0. 0. 0. 0. 0.],-1.9140625,-0.3046875,9.58203125,[0. 0. 0. 0. 0. 0. 0. 0. 0.]
1742664209563101932,1742664209,540409831,imu_link,-0.01556396484375,0.09844970703125,-0.00091552734375,0.9949951171875,[0. 0. 0. 0. 0. 0. 0. 0. 0.],0.0,0.0,0.0,[0. 0. 0. 0. 0. 0. 0. 0. 0.],-1.87890625,-0.3046875,9.578125,[0. 0. 0. 0. 0. 0. 0. 0. 0.]
1742664209572980669,1742664209,565309888,imu_link,-0.01556396484375,0.09844970703125,-0.00091552734375,0.9949951171875,[0. 0. 0. 0. 0. 0. 0. 0. 0.],0.0,0.0,0.0,[0. 0. 0. 0. 0. 0. 0. 0. 0.],-1.9140625,-0.3046875,9.58203125,[0. 0. 0. 0. 0. 0. 0. 0. 0.]
1742664209587527949,1742664209,580332837,imu_link,-0.01556396484375,0.09844970703125,-0.00091552734375,0.9949951171875,[0. 0. 0. 0. 0. 0. 0. 0. 0.],0.0,0.0,0.0,[0. 0. 0. 0. 0. 0. 0. 0. 0.],-1.9140625,-0.3046875,9.58203125,[0. 0. 0. 0. 0. 0. 0. 0. 0.]
1742664209614453145,1742664209,600398183,imu_link,-0.01556396484375,0.09844970703125,-0.00091552734375,0.9949951171875,[0. 0. 0. 0. 0. 0. 0. 0. 0.],0.0,0.0,0.0,[0. 0. 0. 0. 0. 0. 0. 0. 0.],-1.9140625,-0.3046875,9.58203125,[0. 0. 0. 0. 0. 0. 0. 0. 0.]
1742664209623704527,1742664209,620309435,imu_link,-0.01556396484375,0.09844970703125,-0.00091552734375,0.9949951171875,[0. 0. 0. 0. 0. 0. 0. 0. 0.],0.0,0.0,0.0,[0. 0. 0. 0. 0. 0. 0. 0. 0.],-1.9140625,-0.3046875,9.58203125,[0. 0. 0. 0. 0. 0. 0. 0. 0.]
1742664209665398487,1742664209,640692246,imu_link,-0.01556396484375,0.09844970703125,-0.00091552734375,0.9949951171875,[0. 0. 0. 0. 0. 0. 0. 0. 0.],0.0,0.0,0.0,[0. 0. 0. 0. 0. 0. 0. 0. 0.],-1.9140625,-0.3046875,9.58203125,[0. 0. 0. 0. 0. 0. 0. 0. 0.]
1742664209670906367,1742664209,667166218,imu_link,-0.01556396484375,0.09844970703125,-0.00091552734375,0.9949951171875,[0. 0. 0. 0. 0. 0. 0. 0. 0.],0.0,0.0,0.0,[0. 0. 0. 0. 0. 0. 0. 0. 0.],-1.9140625,-0.3046875,9.54296875,[0. 0. 0. 0. 0. 0. 0. 0. 0.]
1742664209687161305,1742664209,680314232,imu_link,-0.01556396484375,0.09844970703125,-0.00091552734375,0.9949951171875,[0. 0. 0. 0. 0. 0. 0. 0. 0.],0.0,0.0,0.0,[0. 0. 0. 0. 0. 0. 0. 0. 0.],-1.9140625,-0.3046875,9.54296875,[0. 0. 0. 0. 0. 0. 0. 0. 0.]
1742664209714574467,1742664209,700509189,imu_link,-0.01556396484375,0.09844970703125,-0.00091552734375,0.9949951171875,[0. 0. 0. 0. 0. 0. 0. 0. 0.],0.0,0.0,0.0,[0. 0. 0. 0. 0. 0. 0. 0. 0.],-1.9140625,-0.3046875,9.58203125,[0. 0. 0. 0. 0. 0. 0. 0. 0.]
1742664209723084900,1742664209,720306238,imu_link,-0.01556396484375,0.09844970703125,-0.00091552734375,0.9949951171875,[0. 0. 0. 0. 0. 0. 0. 0. 0.],0.0,0.0,0.0,[0. 0. 0. 0. 0. 0. 0. 0. 0.],-1.9140625,-0.3046875,9.58203125,[0. 0. 0. 0. 0. 0. 0. 0. 0.]
1742664209743868676,1742664209,740385361,imu_link,-0.01556396484375,0.09844970703125,-0.00091552734375,0.9949951171875,[0. 0. 0. 0. 0. 0. 0. 0. 0.],0.0,0.0,0.0,[0. 0. 0. 0. 0. 0. 0. 0. 0.],-1.9140625,-0.3046875,9.58203125,[0. 0. 0. 0. 0. 0. 0. 0. 0.]
1742664209774272632,1742664209,760323059,imu_link,-0.01556396484375,0.09844970703125,-0.00091552734375,0.9949951171875,[0. 0. 0. 0. 0. 0. 0. 0. 0.],0.0,0.0,0.0,[0. 0. 0. 0. 0. 0. 0. 0. 0.],-1.9140625,-0.3046875,9.58203125,[0. 0. 0. 0. 0. 0. 0. 0. 0.]
1742664209787091514,1742664209,780305145,imu_link,-0.01556396484375,0.09844970703125,-0.00091552734375,0.9949951171875,[0. 0. 0. 0. 0. 0. 0. 0. 0.],0.0,0.0,0.0,[0. 0. 0. 0. 0. 0. 0. 0. 0.],-1.9140625,-0.3046875,9.58203125,[0. 0. 0. 0. 0. 0. 0. 0. 0.]
1742664209813973914,1742664209,800360139,imu_link,-0.01556396484375,0.09844970703125,-0.00091552734375,0.9949951171875,[0. 0. 0. 0. 0. 0. 0. 0. 0.],0.0,0.0,0.0,[0. 0. 0. 0. 0. 0. 0. 0. 0.],-1.9140625,-0.3046875,9.58203125,[0. 0. 0. 0. 0. 0. 0. 0. 0.]
1742664209830471853,1742664209,820287744,imu_link,-0.01556396484375,0.09844970703125,-0.00091552734375,0.9949951171875,[0. 0. 0. 0. 0. 0. 0. 0. 0.],0.0,0.0,0.0,[0. 0. 0. 0. 0. 0. 0. 0. 0.],-1.9140625,-0.3046875,9.58203125,[0. 0. 0. 0. 0. 0. 0. 0. 0.]
1742664209843956812,1742664209,840406886,imu_link,-0.01556396484375,0.09844970703125,-0.00091552734375,0.9949951171875,[0. 0. 0. 0. 0. 0. 0. 0. 0.],0.0,0.0,0.0,[0. 0. 0. 0. 0. 0. 0. 0. 0.],-1.9140625,-0.3046875,9.58203125,[0. 0. 0. 0. 0. 0. 0. 0. 0.]
1742664209874302360,1742664209,860333472,imu_link,-0.01556396484375,0.09844970703125,-0.00091552734375,0.9949951171875,[0. 0. 0. 0. 0. 0. 0. 0. 0.],0.0,0.0,0.0,[0. 0. 0. 0. 0. 0. 0. 0. 0.],-1.9140625,-0.3046875,9.58203125,[0. 0. 0. 0. 0. 0. 0. 0. 0.]
1742664209886895908,1742664209,880336651,imu_link,-0.01556396484375,0.09844970703125,-0.00091552734375,0.9949951171875,[0. 0. 0. 0. 0. 0. 0. 0. 0.],0.0,0.0,0.0,[0. 0. 0. 0. 0. 0. 0. 0. 0.],-1.9140625,-0.3046875,9.58203125,[0. 0. 0. 0. 0. 0. 0. 0. 0.]
1742664209916822046,1742664209,900351108,imu_link,-0.01556396484375,0.09844970703125,-0.00091552734375,0.9949951171875,[0. 0. 0. 0. 0. 0. 0. 0. 0.],0.0,0.0,0.0,[0. 0. 0. 0. 0. 0. 0. 0. 0.],-1.9140625,-0.3046875,9.58203125,[0. 0. 0. 0. 0. 0. 0. 0. 0.]
1742664209923657249,1742664209,920274083,imu_link,-0.01556396484375,0.09844970703125,-0.00091552734375,0.9949951171875,[0. 0. 0. 0. 0. 0. 0. 0. 0.],0.0,0.0,0.0,[0. 0. 0. 0. 0. 0. 0. 0. 0.],-1.9140625,-0.3046875,9.58203125,[0. 0. 0. 0. 0. 0. 0. 0. 0.]
1742664209962394119,1742664209,940596727,imu_link,-0.01556396484375,0.09844970703125,-0.00091552734375,0.9949951171875,[0. 0. 0. 0. 0. 0. 0. 0. 0.],0.0,0.0,0.0,[0. 0. 0. 0. 0. 0. 0. 0. 0.],-1.9140625,-0.3046875,9.58203125,[0. 0. 0. 0. 0. 0. 0. 0. 0.]
1742664209966759919,1742664209,964910298,imu_link,-0.01556396484375,0.09844970703125,-0.00091552734375,0.9949951171875,[0. 0. 0. 0. 0. 0. 0. 0. 0.],0.0,0.0,0.0,[0. 0. 0. 0. 0. 0. 0. 0. 0.],-1.9140625,-0.3046875,9.58203125,[0. 0. 0. 0. 0. 0. 0. 0. 0.]
1742664209992299553,1742664209,980661214,imu_link,-0.01556396484375,0.09844970703125,-0.00091552734375,0.9949951171875,[0. 0. 0. 0. 0. 0. 0. 0. 0.],0.0,0.0,0.0,[0. 0. 0. 0. 0. 0. 0. 0. 0.],-1.9140625,-0.3046875,9.58203125,[0. 0. 0. 0. 0. 0. 0. 0. 0.]
1742664210018839267,1742664210,367633,imu_link,-0.01556396484375,0.09844970703125,-0.00091552734375,0.9949951171875,[0. 0. 0. 0. 0. 0. 0. 0. 0.],0.0,0.0,0.0,[0. 0. 0. 0. 0. 0. 0. 0. 0.],-1.9140625,-0.3046875,9.58203125,[0. 0. 0. 0. 0. 0. 0. 0. 0.]
1742664210024606093,1742664210,21729374,imu_link,-0.01556396484375,0.09844970703125,-0.00091552734375,0.9949951171875,[0. 0. 0. 0. 0. 0. 0. 0. 0.],0.0,0.0,0.0,[0. 0. 0. 0. 0. 0. 0. 0. 0.],-1.9140625,-0.3046875,9.58203125,[0. 0. 0. 0. 0. 0. 0. 0. 0.]
1742664210060267891,1742664210,40392880,imu_link,-0.01556396484375,0.09844970703125,-0.00091552734375,0.9949951171875,[0. 0. 0. 0. 0. 0. 0. 0. 0.],0.0,0.0,0.0,[0. 0. 0. 0. 0. 0. 0. 0. 0.],-1.9140625,-0.26953125,9.578125,[0. 0. 0. 0. 0. 0. 0. 0. 0.]
1742664210065142046,1742664210,62950961,imu_link,-0.01556396484375,0.09844970703125,-0.00091552734375,0.9949951171875,[0. 0. 0. 0. 0. 0. 0. 0. 0.],0.0,0.0,0.0,[0. 0. 0. 0. 0. 0. 0. 0. 0.],-1.9140625,-0.26953125,9.578125,[0. 0. 0. 0. 0. 0. 0. 0. 0.]
1742664210092106243,1742664210,80421664,imu_link,-0.01556396484375,0.09844970703125,-0.00091552734375,0.9949951171875,[0. 0. 0. 0. 0. 0. 0. 0. 0.],0.0,0.0,0.0,[0. 0. 0. 0. 0. 0. 0. 0. 0.],-1.9140625,-0.3046875,9.58203125,[0. 0. 0. 0. 0. 0. 0. 0. 0.]
1742664210113440022,1742664210,100359194,imu_link,-0.01556396484375,0.09844970703125,-0.00091552734375,0.9949951171875,[0. 0. 0. 0. 0. 0. 0. 0. 0.],0.0,0.0,0.0,[0. 0. 0. 0. 0. 0. 0. 0. 0.],-1.9140625,-0.3046875,9.58203125,[0. 0. 0. 0. 0. 0. 0. 0. 0.]
1742664210123806262,1742664210,120351910,imu_link,-0.01556396484375,0.09844970703125,-0.00091552734375,0.9949951171875,[0. 0. 0. 0. 0. 0. 0. 0. 0.],0.0,0.0,0.0,[0. 0. 0. 0. 0. 0. 0. 0. 0.],-1.9140625,-0.3046875,9.58203125,[0. 0. 0. 0. 0. 0. 0. 0. 0.]
1742664210161685442,1742664210,140389682,imu_link,-0.01556396484375,0.09844970703125,-0.00091552734375,0.9949951171875,[0. 0. 0. 0. 0. 0. 0. 0. 0.],0.0,0.0,0.0,[0. 0. 0. 0. 0. 0. 0. 0. 0.],-1.9140625,-0.3046875,9.58203125,[0. 0. 0. 0. 0. 0. 0. 0. 0.]
1742664210167172674,1742664210,164591179,imu_link,-0.01556396484375,0.09844970703125,-0.00091552734375,0.9949951171875,[0. 0. 0. 0. 0. 0. 0. 0. 0.],0.0,0.0,0.0,[0. 0. 0. 0. 0. 0. 0. 0. 0.],-1.9140625,-0.3046875,9.58203125,[0. 0. 0. 0. 0. 0. 0. 0. 0.]
1742664210187029649,1742664210,180470799,imu_link,-0.01556396484375,0.09844970703125,-0.00091552734375,0.9949951171875,[0. 0. 0. 0. 0. 0. 0. 0. 0.],0.0,0.0,0.0,[0. 0. 0. 0. 0. 0. 0. 0. 0.],-1.9140625,-0.3046875,9.58203125,[0. 0. 0. 0. 0. 0. 0. 0. 0.]
1742664210214337070,1742664210,200330404,imu_link,-0.01556396484375,0.09844970703125,-0.00091552734375,0.9949951171875,[0. 0. 0. 0. 0. 0. 0. 0. 0.],0.0,0.0,0.0,[0. 0. 0. 0. 0. 0. 0. 0. 0.],-1.9140625,-0.3046875,9.58203125,[0. 0. 0. 0. 0. 0. 0. 0. 0.]
1742664210223651693,1742664210,220288268,imu_link,-0.01556396484375,0.09844970703125,-0.00091552734375,0.9949951171875,[0. 0. 0. 0. 0. 0. 0. 0. 0.],0.0,0.0,0.0,[0. 0. 0. 0. 0. 0. 0. 0. 0.],-1.9140625,-0.3046875,9.58203125,[0. 0. 0. 0. 0. 0. 0. 0. 0.]
1742664210265432282,1742664210,240387132,imu_link,-0.01556396484375,0.09844970703125,-0.00091552734375,0.9949951171875,[0. 0. 0. 0. 0. 0. 0. 0. 0.],0.0,0.0,0.0,[0. 0. 0. 0. 0. 0. 0. 0. 0.],-1.9140625,-0.3046875,9.58203125,[0. 0. 0. 0. 0. 0. 0. 0. 0.]
1742664210270696180,1742664210,267154828,imu_link,-0.01556396484375,0.09844970703125,-0.00091552734375,0.9949951171875,[0. 0. 0. 0. 0. 0. 0. 0. 0.],0.0,0.0,0.0,[0. 0. 0. 0. 0. 0. 0. 0. 0.],-1.9140625,-0.3046875,9.58203125,[0. 0. 0. 0. 0. 0. 0. 0. 0.]
1742664210287089748,1742664210,280430990,imu_link,-0.01556396484375,0.09844970703125,-0.00091552734375,0.9949951171875,[0. 0. 0. 0. 0. 0. 0. 0. 0.],0.0,0.0,0.0,[0. 0. 0. 0. 0. 0. 0. 0. 0.],-1.9140625,-0.3046875,9.58203125,[0. 0. 0. 0. 0. 0. 0. 0. 0.]
1742664210313864425,1742664210,300358595,imu_link,-0.01556396484375,0.09844970703125,-0.00091552734375,0.9949951171875,[0. 0. 0. 0. 0. 0. 0. 0. 0.],0.0,0.0,0.0,[0. 0. 0. 0. 0. 0. 0. 0. 0.],-1.9140625,-0.3046875,9.58203125,[0. 0. 0. 0. 0. 0. 0. 0. 0.]
1742664210322505526,1742664210,320311496,imu_link,-0.01556396484375,0.09844970703125,-0.00091552734375,0.9949951171875,[0. 0. 0. 0. 0. 0. 0. 0. 0.],0.0,0.0,0.0,[0. 0. 0. 0. 0. 0. 0. 0. 0.],-1.9140625,-0.3046875,9.58203125,[0. 0. 0. 0. 0. 0. 0. 0. 0.]
1742664210344342751,1742664210,340395268,imu_link,-0.01556396484375,0.09844970703125,-0.00091552734375,0.9949951171875,[0. 0. 0. 0. 0. 0. 0. 0. 0.],0.0,0.0,0.0,[0. 0. 0. 0. 0. 0. 0. 0. 0.],-1.9140625,-0.3046875,9.58203125,[0. 0. 0. 0. 0. 0. 0. 0. 0.]
1742664210374464576,1742664210,360355335,imu_link,-0.01556396484375,0.09844970703125,-0.00091552734375,0.9949951171875,[0. 0. 0. 0. 0. 0. 0. 0. 0.],0.0,0.0,0.0,[0. 0. 0. 0. 0. 0. 0. 0. 0.],-1.9140625,-0.3046875,9.58203125,[0. 0. 0. 0. 0. 0. 0. 0. 0.]
1742664210384239183,1742664210,381418113,imu_link,-0.01556396484375,0.09844970703125,-0.00091552734375,0.9949951171875,[0. 0. 0. 0. 0. 0. 0. 0. 0.],0.0,0.0,0.0,[0. 0. 0. 0. 0. 0. 0. 0. 0.],-1.9140625,-0.3046875,9.58203125,[0. 0. 0. 0. 0. 0. 0. 0. 0.]
1742664210413660263,1742664210,400307767,imu_link,-0.01556396484375,0.09844970703125,-0.00091552734375,0.9949951171875,[0. 0. 0. 0. 0. 0. 0. 0. 0.],0.0,0.0,0.0,[0. 0. 0. 0. 0. 0. 0. 0. 0.],-1.9140625,-0.3046875,9.58203125,[0. 0. 0. 0. 0. 0. 0. 0. 0.]
1742664210431313559,1742664210,420359280,imu_link,-0.01556396484375,0.09844970703125,-0.00091552734375,0.9949951171875,[0. 0. 0. 0. 0. 0. 0. 0. 0.],0.0,0.0,0.0,[0. 0. 0. 0. 0. 0. 0. 0. 0.],-1.9140625,-0.3046875,9.58203125,[0. 0. 0. 0. 0. 0. 0. 0. 0.]
1742664210443813940,1742664210,440383292,imu_link,-0.01556396484375,0.09844970703125,-0.00091552734375,0.9949951171875,[0. 0. 0. 0. 0. 0. 0. 0. 0.],0.0,0.0,0.0,[0. 0. 0. 0. 0. 0. 0. 0. 0.],-1.9140625,-0.3046875,9.58203125,[0. 0. 0. 0. 0. 0. 0. 0. 0.]
1742664210473813708,1742664210,460368416,imu_link,-0.01556396484375,0.09844970703125,-0.00091552734375,0.9949951171875,[0. 0. 0. 0. 0. 0. 0. 0. 0.],0.0,0.0,0.0,[0. 0. 0. 0. 0. 0. 0. 0. 0.],-1.9140625,-0.3046875,9.58203125,[0. 0. 0. 0. 0. 0. 0. 0. 0.]
1742664210492294102,1742664210,480408928,imu_link,-0.01556396484375,0.09844970703125,-0.00091552734375,0.9949951171875,[0. 0. 0. 0. 0. 0. 0. 0. 0.],0.0,0.0,0.0,[0. 0. 0. 0. 0. 0. 0. 0. 0.],-1.9140625,-0.3046875,9.58203125,[0. 0. 0. 0. 0. 0. 0. 0. 0.]
1742664210515810799,1742664210,500368385,imu_link,-0.01556396484375,0.09844970703125,-0.00091552734375,0.9949951171875,[0. 0. 0. 0. 0. 0. 0. 0. 0.],0.0,0.0,0.0,[0. 0. 0. 0. 0. 0. 0. 0. 0.],-1.9140625,-0.3046875,9.58203125,[0. 0. 0. 0. 0. 0. 0. 0. 0.]
1742664210523877156,1742664210,520491620,imu_link,-0.01556396484375,0.09844970703125,-0.00091552734375,0.9949951171875,[0. 0. 0. 0. 0. 0. 0. 0. 0.],0.0,0.0,0.0,[0. 0. 0. 0. 0. 0. 0. 0. 0.],-1.9140625,-0.3046875,9.58203125,[0. 0. 0. 0. 0. 0. 0. 0. 0.]
1742664210543200609,1742664210,540388094,imu_link,-0.01556396484375,0.09844970703125,-0.00091552734375,0.9949951171875,[0. 0. 0. 0. 0. 0. 0. 0. 0.],0.0,0.0,0.0,[0. 0. 0. 0. 0. 0. 0. 0. 0.],-1.9140625,-0.3046875,9.58203125,[0. 0. 0. 0. 0. 0. 0. 0. 0.]
1742664210573119766,1742664210,560384885,imu_link,-0.01556396484375,0.09844970703125,-0.00091552734375,0.9949951171875,[0. 0. 0. 0. 0. 0. 0. 0. 0.],0.0,0.0,0.0,[0. 0. 0. 0. 0. 0. 0. 0. 0.],-1.9140625,-0.3046875,9.58203125,[0. 0. 0. 0. 0. 0. 0. 0. 0.]
1742664210591383029,1742664210,580438342,imu_link,-0.01556396484375,0.09844970703125,-0.00091552734375,0.9949951171875,[0. 0. 0. 0. 0. 0. 0. 0. 0.],0.0,0.0,0.0,[0. 0. 0. 0. 0. 0. 0. 0. 0.],-1.9140625,-0.3046875,9.58203125,[0. 0. 0. 0. 0. 0. 0. 0. 0.]
1742664210615846824,1742664210,600323113,imu_link,-0.01556396484375,0.09844970703125,-0.00091552734375,0.9949951171875,[0. 0. 0. 0. 0. 0. 0. 0. 0.],0.0,0.0,0.0,[0. 0. 0. 0. 0. 0. 0. 0. 0.],-1.9140625,-0.3046875,9.58203125,[0. 0. 0. 0. 0. 0. 0. 0. 0.]
1742664210623207288,1742664210,620350958,imu_link,-0.01556396484375,0.09844970703125,-0.00091552734375,0.9949951171875,[0. 0. 0. 0. 0. 0. 0. 0. 0.],0.0,0.0,0.0,[0. 0. 0. 0. 0. 0. 0. 0. 0.],-1.9140625,-0.3046875,9.58203125,[0. 0. 0. 0. 0. 0. 0. 0. 0.]
1742664210656820779,1742664210,640391952,imu_link,-0.01556396484375,0.09844970703125,-0.00091552734375,0.9949951171875,[0. 0. 0. 0. 0. 0. 0. 0. 0.],0.0,0.0,0.0,[0. 0. 0. 0. 0. 0. 0. 0. 0.],-1.9140625,-0.3046875,9.58203125,[0. 0. 0. 0. 0. 0. 0. 0. 0.]
1742664210663162609,1742664210,660281612,imu_link,-0.01556396484375,0.09844970703125,-0.00091552734375,0.9949951171875,[0. 0. 0. 0. 0. 0. 0. 0. 0.],0.0,0.0,0.0,[0. 0. 0. 0. 0. 0. 0. 0. 0.],-1.9140625,-0.3046875,9.58203125,[0. 0. 0. 0. 0. 0. 0. 0. 0.]
1742664210691219274,1742664210,680498737,imu_link,-0.01556396484375,0.09844970703125,-0.00091552734375,0.9949951171875,[0. 0. 0. 0. 0. 0. 0. 0. 0.],0.0,0.0,0.0,[0. 0. 0. 0. 0. 0. 0. 0. 0.],-1.87890625,-0.3046875,9.578125,[0. 0. 0. 0. 0. 0. 0. 0. 0.]
1742664210712956555,1742664210,700448767,imu_link,-0.01556396484375,0.09844970703125,-0.00091552734375,0.9949951171875,[0. 0. 0. 0. 0. 0. 0. 0. 0.],0.0,0.0,0.0,[0. 0. 0. 0. 0. 0. 0. 0. 0.],-1.9140625,-0.3046875,9.58203125,[0. 0. 0. 0. 0. 0. 0. 0. 0.]
1742664210723191257,1742664210,720336983,imu_link,-0.01556396484375,0.09844970703125,-0.00091552734375,0.9949951171875,[0. 0. 0. 0. 0. 0. 0. 0. 0.],0.0,0.0,0.0,[0. 0. 0. 0. 0. 0. 0. 0. 0.],-1.9140625,-0.3046875,9.58203125,[0. 0. 0. 0. 0. 0. 0. 0. 0.]
1742664210760215173,1742664210,740396643,imu_link,-0.01556396484375,0.09844970703125,-0.00091552734375,0.9949951171875,[0. 0. 0. 0. 0. 0. 0. 0. 0.],0.0,0.0,0.0,[0. 0. 0. 0. 0. 0. 0. 0. 0.],-1.9140625,-0.3046875,9.58203125,[0. 0. 0. 0. 0. 0. 0. 0. 0.]
1742664210764719030,1742664210,762964021,imu_link,-0.01556396484375,0.09844970703125,-0.00091552734375,0.9949951171875,[0. 0. 0. 0. 0. 0. 0. 0. 0.],0.0,0.0,0.0,[0. 0. 0. 0. 0. 0. 0. 0. 0.],-1.9140625,-0.3046875,9.58203125,[0. 0. 0. 0. 0. 0. 0. 0. 0.]
1742664210791327318,1742664210,780445409,imu_link,-0.01556396484375,0.09844970703125,-0.00091552734375,0.9949951171875,[0. 0. 0. 0. 0. 0. 0. 0. 0.],0.0,0.0,0.0,[0. 0. 0. 0. 0. 0. 0. 0. 0.],-1.9140625,-0.3046875,9.58203125,[0. 0. 0. 0. 0. 0. 0. 0. 0.]
1742664210813230285,1742664210,800355662,imu_link,-0.01556396484375,0.09844970703125,-0.00091552734375,0.9949951171875,[0. 0. 0. 0. 0. 0. 0. 0. 0.],0.0,0.0,0.0,[0. 0. 0. 0. 0. 0. 0. 0. 0.],-1.9140625,-0.3046875,9.58203125,[0. 0. 0. 0. 0. 0. 0. 0. 0.]
1742664210823186652,1742664210,820332711,imu_link,-0.01556396484375,0.09844970703125,-0.00091552734375,0.9949951171875,[0. 0. 0. 0. 0. 0. 0. 0. 0.],0.0,0.0,0.0,[0. 0. 0. 0. 0. 0. 0. 0. 0.],-1.9140625,-0.3046875,9.58203125,[0. 0. 0. 0. 0. 0. 0. 0. 0.]
1742664210858963154,1742664210,840547946,imu_link,-0.01556396484375,0.09844970703125,-0.00091552734375,0.9949951171875,[0. 0. 0. 0. 0. 0. 0. 0. 0.],0.0,0.0,0.0,[0. 0. 0. 0. 0. 0. 0. 0. 0.],-1.9140625,-0.3046875,9.58203125,[0. 0. 0. 0. 0. 0. 0. 0. 0.]
1742664210868693779,1742664210,865110538,imu_link,-0.01556396484375,0.09844970703125,-0.00091552734375,0.9949951171875,[0. 0. 0. 0. 0. 0. 0. 0. 0.],0.0,0.0,0.0,[0. 0. 0. 0. 0. 0. 0. 0. 0.],-1.9140625,-0.3046875,9.58203125,[0. 0. 0. 0. 0. 0. 0. 0. 0.]
1742664210886984801,1742664210,880367933,imu_link,-0.01556396484375,0.09844970703125,-0.00091552734375,0.9949951171875,[0. 0. 0. 0. 0. 0. 0. 0. 0.],0.0,0.0,0.0,[0. 0. 0. 0. 0. 0. 0. 0. 0.],-1.9140625,-0.3046875,9.58203125,[0. 0. 0. 0. 0. 0. 0. 0. 0.]
1742664210913145975,1742664210,900338353,imu_link,-0.01556396484375,0.09844970703125,-0.00091552734375,0.9949951171875,[0. 0. 0. 0. 0. 0. 0. 0. 0.],0.0,0.0,0.0,[0. 0. 0. 0. 0. 0. 0. 0. 0.],-1.9140625,-0.3046875,9.58203125,[0. 0. 0. 0. 0. 0. 0. 0. 0.]
1742664210922787007,1742664210,920438791,imu_link,-0.01556396484375,0.09844970703125,-0.00091552734375,0.9949951171875,[0. 0. 0. 0. 0. 0. 0. 0. 0.],0.0,0.0,0.0,[0. 0. 0. 0. 0. 0. 0. 0. 0.],-1.9140625,-0.3046875,9.58203125,[0. 0. 0. 0. 0. 0. 0. 0. 0.]
1742664210943161670,1742664210,940307322,imu_link,-0.01556396484375,0.09844970703125,-0.00091552734375,0.9949951171875,[0. 0. 0. 0. 0. 0. 0. 0. 0.],0.0,0.0,0.0,[0. 0. 0. 0. 0. 0. 0. 0. 0.],-1.87890625,-0.26953125,9.54296875,[0. 0. 0. 0. 0. 0. 0. 0. 0.]
1742664210973060901,1742664210,960381316,imu_link,-0.01556396484375,0.09844970703125,-0.00091552734375,0.9949951171875,[0. 0. 0. 0. 0. 0. 0. 0. 0.],0.0,0.0,0.0,[0. 0. 0. 0. 0. 0. 0. 0. 0.],-1.9140625,-0.3046875,9.58203125,[0. 0. 0. 0. 0. 0. 0. 0. 0.]
1742664210985662578,1742664210,980328346,imu_link,-0.01556396484375,0.09844970703125,-0.00091552734375,0.9949951171875,[0. 0. 0. 0. 0. 0. 0. 0. 0.],0.0,0.0,0.0,[0. 0. 0. 0. 0. 0. 0. 0. 0.],-1.9140625,-0.3046875,9.58203125,[0. 0. 0. 0. 0. 0. 0. 0. 0.]
1742664211012031068,1742664211,322710,imu_link,-0.01556396484375,0.09844970703125,-0.00091552734375,0.9949951171875,[0. 0. 0. 0. 0. 0. 0. 0. 0.],0.0,0.0,0.0,[0. 0. 0. 0. 0. 0. 0. 0. 0.],-1.9140625,-0.3046875,9.58203125,[0. 0. 0. 0. 0. 0. 0. 0. 0.]
1742664211032637880,1742664211,20526242,imu_link,-0.01556396484375,0.09844970703125,-0.00091552734375,0.9949951171875,[0. 0. 0. 0. 0. 0. 0. 0. 0.],0.0,0.0,0.0,[0. 0. 0. 0. 0. 0. 0. 0. 0.],-1.87890625,-0.3046875,9.578125,[0. 0. 0. 0. 0. 0. 0. 0. 0.]
1742664211042505006,1742664211,40302735,imu_link,-0.01556396484375,0.09844970703125,-0.00091552734375,0.9949951171875,[0. 0. 0. 0. 0. 0. 0. 0. 0.],0.0,0.0,0.0,[0. 0. 0. 0. 0. 0. 0. 0. 0.],-1.87890625,-0.3046875,9.578125,[0. 0. 0. 0. 0. 0. 0. 0. 0.]
1742664211072565145,1742664211,60351562,imu_link,-0.01556396484375,0.098388671875,-0.00091552734375,0.9949951171875,[0. 0. 0. 0. 0. 0. 0. 0. 0.],0.0,0.0,0.0,[0. 0. 0. 0. 0. 0. 0. 0. 0.],-1.9140625,-0.3046875,9.58203125,[0. 0. 0. 0. 0. 0. 0. 0. 0.]
1742664211090471702,1742664211,80292056,imu_link,-0.01556396484375,0.098388671875,-0.00091552734375,0.9949951171875,[0. 0. 0. 0. 0. 0. 0. 0. 0.],0.0,0.0,0.0,[0. 0. 0. 0. 0. 0. 0. 0. 0.],-1.9140625,-0.3046875,9.58203125,[0. 0. 0. 0. 0. 0. 0. 0. 0.]
1742664211112192538,1742664211,100376161,imu_link,-0.01556396484375,0.098388671875,-0.00091552734375,0.99505615234375,[0. 0. 0. 0. 0. 0. 0. 0. 0.],0.0,0.0,0.0,[0. 0. 0. 0. 0. 0. 0. 0. 0.],-1.9140625,-0.3046875,9.58203125,[0. 0. 0. 0. 0. 0. 0. 0. 0.]
1742664211122586907,1742664211,120331229,imu_link,-0.01556396484375,0.098388671875,-0.00091552734375,0.99505615234375,[0. 0. 0. 0. 0. 0. 0. 0. 0.],0.0,0.0,0.0,[0. 0. 0. 0. 0. 0. 0. 0. 0.],-1.9140625,-0.3046875,9.58203125,[0. 0. 0. 0. 0. 0. 0. 0. 0.]
1742664211158765986,1742664211,140387797,imu_link,-0.0155029296875,0.098388671875,-0.00091552734375,0.99505615234375,[0. 0. 0. 0. 0. 0. 0. 0. 0.],0.0,0.0,0.0,[0. 0. 0. 0. 0. 0. 0. 0. 0.],-1.9140625,-0.3046875,9.58203125,[0. 0. 0. 0. 0. 0. 0. 0. 0.]
1742664211163601530,1742664211,161643667,imu_link,-0.0155029296875,0.098388671875,-0.00091552734375,0.99505615234375,[0. 0. 0. 0. 0. 0. 0. 0. 0.],0.0,0.0,0.0,[0. 0. 0. 0. 0. 0. 0. 0. 0.],-1.9140625,-0.3046875,9.58203125,[0. 0. 0. 0. 0. 0. 0. 0. 0.]
1742664211192292328,1742664211,180393136,imu_link,-0.0155029296875,0.098388671875,-0.00091552734375,0.99505615234375,[0. 0. 0. 0. 0. 0. 0. 0. 0.],0.0,0.0,0.0,[0. 0. 0. 0. 0. 0. 0. 0. 0.],-1.9140625,-0.3046875,9.58203125,[0. 0. 0. 0. 0. 0. 0. 0. 0.]
1742664211217536738,1742664211,200503390,imu_link,-0.0155029296875,0.09832763671875,-0.00091552734375,0.99505615234375,[0. 0. 0. 0. 0. 0. 0. 0. 0.],0.0,0.0,0.0,[0. 0. 0. 0. 0. 0. 0. 0. 0.],-1.9140625,-0.3046875,9.58203125,[0. 0. 0. 0. 0. 0. 0. 0. 0.]
1742664211222713210,1742664211,220448420,imu_link,-0.0155029296875,0.09832763671875,-0.00091552734375,0.99505615234375,[0. 0. 0. 0. 0. 0. 0. 0. 0.],0.0,0.0,0.0,[0. 0. 0. 0. 0. 0. 0. 0. 0.],-1.9140625,-0.3046875,9.58203125,[0. 0. 0. 0. 0. 0. 0. 0. 0.]
1742664211257016001,1742664211,240396191,imu_link,-0.0155029296875,0.09832763671875,-0.00091552734375,0.99505615234375,[0. 0. 0. 0. 0. 0. 0. 0. 0.],0.0,0.0,0.0,[0. 0. 0. 0. 0. 0. 0. 0. 0.],-1.9140625,-0.3046875,9.58203125,[0. 0. 0. 0. 0. 0. 0. 0. 0.]
1742664211262428122,1742664211,260273703,imu_link,-0.0155029296875,0.09832763671875,-0.00091552734375,0.99505615234375,[0. 0. 0. 0. 0. 0. 0. 0. 0.],0.0,0.0,0.0,[0. 0. 0. 0. 0. 0. 0. 0. 0.],-1.9140625,-0.3046875,9.58203125,[0. 0. 0. 0. 0. 0. 0. 0. 0.]
1742664211291716220,1742664211,280391290,imu_link,-0.0155029296875,0.09832763671875,-0.00091552734375,0.99505615234375,[0. 0. 0. 0. 0. 0. 0. 0. 0.],0.0,0.0,0.0,[0. 0. 0. 0. 0. 0. 0. 0. 0.],-1.9140625,-0.3046875,9.58203125,[0. 0. 0. 0. 0. 0. 0. 0. 0.]
1742664211312145790,1742664211,300319154,imu_link,-0.0155029296875,0.09832763671875,-0.00091552734375,0.99505615234375,[0. 0. 0. 0. 0. 0. 0. 0. 0.],0.0,0.0,0.0,[0. 0. 0. 0. 0. 0. 0. 0. 0.],-1.9140625,-0.3046875,9.58203125,[0. 0. 0. 0. 0. 0. 0. 0. 0.]
