timestamp,header.stamp.sec,header.stamp.nanosec,header.frame_id,orientation.x,orientation.y,orientation.z,orientation.w,orientation_covariance,angular_velocity.x,angular_velocity.y,angular_velocity.z,angular_velocity_covariance,linear_acceleration.x,linear_acceleration.y,linear_acceleration.z,linear_acceleration_covariance
1742666894999700708,1742666894,991548894,imu_link,-0.01556396484375,0.09820556640625,-0.0008544921875,0.99505615234375,[0. 0. 0. 0. 0. 0. 0. 0. 0.],0.0,0.0,0.0,[0. 0. 0. 0. 0. 0. 0. 0. 0.],-1.87890625,-0.3046875,9.578125,[0. 0. 0. 0. 0. 0. 0. 0. 0.]
1742666895024715116,1742666895,11090116,imu_link,-0.01556396484375,0.09820556640625,-0.0008544921875,0.99505615234375,[0. 0. 0. 0. 0. 0. 0. 0. 0.],0.0,0.0,0.0,[0. 0. 0. 0. 0. 0. 0. 0. 0.],-1.9140625,-0.3046875,9.58203125,[0. 0. 0. 0. 0. 0. 0. 0. 0.]
1742666895034007671,1742666895,31050523,imu_link,-0.01556396484375,0.09820556640625,-0.0008544921875,0.99505615234375,[0. 0. 0. 0. 0. 0. 0. 0. 0.],0.0,0.0,0.0,[0. 0. 0. 0. 0. 0. 0. 0. 0.],-1.9140625,-0.3046875,9.58203125,[0. 0. 0. 0. 0. 0. 0. 0. 0.]
1742666895067639949,1742666895,51048708,imu_link,-0.01556396484375,0.09820556640625,-0.0008544921875,0.99505615234375,[0. 0. 0. 0. 0. 0. 0. 0. 0.],0.0,0.0,0.0,[0. 0. 0. 0. 0. 0. 0. 0. 0.],-1.87890625,-0.3046875,9.578125,[0. 0. 0. 0. 0. 0. 0. 0. 0.]
1742666895077514690,1742666895,71008745,imu_link,-0.01556396484375,0.09820556640625,-0.0008544921875,0.99505615234375,[0. 0. 0. 0. 0. 0. 0. 0. 0.],0.0,0.0,0.0,[0. 0. 0. 0. 0. 0. 0. 0. 0.],-1.9140625,-0.3046875,9.58203125,[0. 0. 0. 0. 0. 0. 0. 0. 0.]
1742666895098713134,1742666895,91020079,imu_link,-0.01556396484375,0.09820556640625,-0.0008544921875,0.99505615234375,[0. 0. 0. 0. 0. 0. 0. 0. 0.],0.0,0.0,0.0,[0. 0. 0. 0. 0. 0. 0. 0. 0.],-1.9140625,-0.3046875,9.58203125,[0. 0. 0. 0. 0. 0. 0. 0. 0.]
1742666895124238190,1742666895,111089171,imu_link,-0.01556396484375,0.09820556640625,-0.0008544921875,0.99505615234375,[0. 0. 0. 0. 0. 0. 0. 0. 0.],0.0,0.0,0.0,[0. 0. 0. 0. 0. 0. 0. 0. 0.],-1.9140625,-0.3046875,9.58203125,[0. 0. 0. 0. 0. 0. 0. 0. 0.]
1742666895133683949,1742666895,131228856,imu_link,-0.01556396484375,0.09820556640625,-0.0008544921875,0.99505615234375,[0. 0. 0. 0. 0. 0. 0. 0. 0.],0.0,0.0,0.0,[0. 0. 0. 0. 0. 0. 0. 0. 0.],-1.9140625,-0.3046875,9.58203125,[0. 0. 0. 0. 0. 0. 0. 0. 0.]
1742666895172398430,1742666895,151017875,imu_link,-0.01556396484375,0.09820556640625,-0.0008544921875,0.99505615234375,[0. 0. 0. 0. 0. 0. 0. 0. 0.],0.0,0.0,0.0,[0. 0. 0. 0. 0. 0. 0. 0. 0.],-1.9140625,-0.3046875,9.58203125,[0. 0. 0. 0. 0. 0. 0. 0. 0.]
1742666895176382690,1742666895,174034208,imu_link,-0.01556396484375,0.09820556640625,-0.0008544921875,0.99505615234375,[0. 0. 0. 0. 0. 0. 0. 0. 0.],0.0,0.0,0.0,[0. 0. 0. 0. 0. 0. 0. 0. 0.],-1.9140625,-0.3046875,9.58203125,[0. 0. 0. 0. 0. 0. 0. 0. 0.]
1742666895197247634,1742666895,191013153,imu_link,-0.01556396484375,0.09820556640625,-0.0008544921875,0.99505615234375,[0. 0. 0. 0. 0. 0. 0. 0. 0.],0.0,0.0,0.0,[0. 0. 0. 0. 0. 0. 0. 0. 0.],-1.9140625,-0.3046875,9.58203125,[0. 0. 0. 0. 0. 0. 0. 0. 0.]
1742666895223124005,1742666895,211052467,imu_link,-0.01556396484375,0.09820556640625,-0.0008544921875,0.99505615234375,[0. 0. 0. 0. 0. 0. 0. 0. 0.],0.0,0.0,0.0,[0. 0. 0. 0. 0. 0. 0. 0. 0.],-1.9140625,-0.3046875,9.58203125,[0. 0. 0. 0. 0. 0. 0. 0. 0.]
1742666895242057227,1742666895,231053023,imu_link,-0.01556396484375,0.09820556640625,-0.0008544921875,0.99505615234375,[0. 0. 0. 0. 0. 0. 0. 0. 0.],0.0,0.0,0.0,[0. 0. 0. 0. 0. 0. 0. 0. 0.],-1.9140625,-0.3046875,9.58203125,[0. 0. 0. 0. 0. 0. 0. 0. 0.]
1742666895252911301,1742666895,251036282,imu_link,-0.01556396484375,0.09820556640625,-0.0008544921875,0.99505615234375,[0. 0. 0. 0. 0. 0. 0. 0. 0.],0.0,0.0,0.0,[0. 0. 0. 0. 0. 0. 0. 0. 0.],-1.9140625,-0.3046875,9.58203125,[0. 0. 0. 0. 0. 0. 0. 0. 0.]
1742666895287671949,1742666895,271072004,imu_link,-0.01556396484375,0.09820556640625,-0.0008544921875,0.99505615234375,[0. 0. 0. 0. 0. 0. 0. 0. 0.],0.0,0.0,0.0,[0. 0. 0. 0. 0. 0. 0. 0. 0.],-1.9140625,-0.3046875,9.58203125,[0. 0. 0. 0. 0. 0. 0. 0. 0.]
1742666895292815782,1742666895,290965579,imu_link,-0.01556396484375,0.09820556640625,-0.0008544921875,0.99505615234375,[0. 0. 0. 0. 0. 0. 0. 0. 0.],0.0,0.0,0.0,[0. 0. 0. 0. 0. 0. 0. 0. 0.],-1.9140625,-0.3046875,9.58203125,[0. 0. 0. 0. 0. 0. 0. 0. 0.]
1742666895322957190,1742666895,311131708,imu_link,-0.01556396484375,0.09820556640625,-0.0008544921875,0.99505615234375,[0. 0. 0. 0. 0. 0. 0. 0. 0.],0.0,0.0,0.0,[0. 0. 0. 0. 0. 0. 0. 0. 0.],-1.9140625,-0.3046875,9.58203125,[0. 0. 0. 0. 0. 0. 0. 0. 0.]
1742666895341786060,1742666895,331085727,imu_link,-0.01556396484375,0.09820556640625,-0.0008544921875,0.99505615234375,[0. 0. 0. 0. 0. 0. 0. 0. 0.],0.0,0.0,0.0,[0. 0. 0. 0. 0. 0. 0. 0. 0.],-1.87890625,-0.3046875,9.578125,[0. 0. 0. 0. 0. 0. 0. 0. 0.]
1742666895352907023,1742666895,351051893,imu_link,-0.01556396484375,0.09820556640625,-0.0008544921875,0.99505615234375,[0. 0. 0. 0. 0. 0. 0. 0. 0.],0.0,0.0,0.0,[0. 0. 0. 0. 0. 0. 0. 0. 0.],-1.87890625,-0.3046875,9.578125,[0. 0. 0. 0. 0. 0. 0. 0. 0.]
1742666895383243412,1742666895,370964893,imu_link,-0.01556396484375,0.09820556640625,-0.0008544921875,0.99505615234375,[0. 0. 0. 0. 0. 0. 0. 0. 0.],0.0,0.0,0.0,[0. 0. 0. 0. 0. 0. 0. 0. 0.],-1.9140625,-0.3046875,9.58203125,[0. 0. 0. 0. 0. 0. 0. 0. 0.]
1742666895396679004,1742666895,393712801,imu_link,-0.01556396484375,0.09820556640625,-0.0008544921875,0.99505615234375,[0. 0. 0. 0. 0. 0. 0. 0. 0.],0.0,0.0,0.0,[0. 0. 0. 0. 0. 0. 0. 0. 0.],-1.9140625,-0.3046875,9.58203125,[0. 0. 0. 0. 0. 0. 0. 0. 0.]
1742666895428169467,1742666895,411005004,imu_link,-0.01556396484375,0.09814453125,-0.0008544921875,0.99505615234375,[0. 0. 0. 0. 0. 0. 0. 0. 0.],0.0,0.0,0.0,[0. 0. 0. 0. 0. 0. 0. 0. 0.],-1.87890625,-0.3046875,9.578125,[0. 0. 0. 0. 0. 0. 0. 0. 0.]
1742666895432696356,1742666895,430963486,imu_link,-0.01556396484375,0.09814453125,-0.0008544921875,0.99505615234375,[0. 0. 0. 0. 0. 0. 0. 0. 0.],0.0,0.0,0.0,[0. 0. 0. 0. 0. 0. 0. 0. 0.],-1.87890625,-0.3046875,9.578125,[0. 0. 0. 0. 0. 0. 0. 0. 0.]
1742666895465603893,1742666895,451040486,imu_link,-0.01556396484375,0.09814453125,-0.0008544921875,0.99505615234375,[0. 0. 0. 0. 0. 0. 0. 0. 0.],0.0,0.0,0.0,[0. 0. 0. 0. 0. 0. 0. 0. 0.],-1.87890625,-0.3046875,9.578125,[0. 0. 0. 0. 0. 0. 0. 0. 0.]
1742666895472696745,1742666895,470953041,imu_link,-0.01556396484375,0.09814453125,-0.0008544921875,0.99505615234375,[0. 0. 0. 0. 0. 0. 0. 0. 0.],0.0,0.0,0.0,[0. 0. 0. 0. 0. 0. 0. 0. 0.],-1.87890625,-0.3046875,9.578125,[0. 0. 0. 0. 0. 0. 0. 0. 0.]
1742666895502261375,1742666895,491069338,imu_link,-0.01556396484375,0.09814453125,-0.0008544921875,0.99505615234375,[0. 0. 0. 0. 0. 0. 0. 0. 0.],0.0,0.0,0.0,[0. 0. 0. 0. 0. 0. 0. 0. 0.],-1.9140625,-0.3046875,9.58203125,[0. 0. 0. 0. 0. 0. 0. 0. 0.]
1742666895525413041,1742666895,511002523,imu_link,-0.01556396484375,0.09814453125,-0.0008544921875,0.99505615234375,[0. 0. 0. 0. 0. 0. 0. 0. 0.],0.0,0.0,0.0,[0. 0. 0. 0. 0. 0. 0. 0. 0.],-1.87890625,-0.3046875,9.578125,[0. 0. 0. 0. 0. 0. 0. 0. 0.]
1742666895532863060,1742666895,531010949,imu_link,-0.01556396484375,0.09814453125,-0.0008544921875,0.99505615234375,[0. 0. 0. 0. 0. 0. 0. 0. 0.],0.0,0.0,0.0,[0. 0. 0. 0. 0. 0. 0. 0. 0.],-1.87890625,-0.3046875,9.578125,[0. 0. 0. 0. 0. 0. 0. 0. 0.]
1742666895567265189,1742666895,551025727,imu_link,-0.01556396484375,0.09814453125,-0.0008544921875,0.99505615234375,[0. 0. 0. 0. 0. 0. 0. 0. 0.],0.0,0.0,0.0,[0. 0. 0. 0. 0. 0. 0. 0. 0.],-1.9140625,-0.3046875,9.58203125,[0. 0. 0. 0. 0. 0. 0. 0. 0.]
1742666895572707504,1742666895,570965541,imu_link,-0.01556396484375,0.09814453125,-0.0008544921875,0.99505615234375,[0. 0. 0. 0. 0. 0. 0. 0. 0.],0.0,0.0,0.0,[0. 0. 0. 0. 0. 0. 0. 0. 0.],-1.9140625,-0.3046875,9.58203125,[0. 0. 0. 0. 0. 0. 0. 0. 0.]
1742666895602522412,1742666895,591065078,imu_link,-0.01556396484375,0.09814453125,-0.0008544921875,0.99505615234375,[0. 0. 0. 0. 0. 0. 0. 0. 0.],0.0,0.0,0.0,[0. 0. 0. 0. 0. 0. 0. 0. 0.],-1.9140625,-0.3046875,9.58203125,[0. 0. 0. 0. 0. 0. 0. 0. 0.]
1742666895620069930,1742666895,616658208,imu_link,-0.01556396484375,0.09814453125,-0.0008544921875,0.99505615234375,[0. 0. 0. 0. 0. 0. 0. 0. 0.],0.0,0.0,0.0,[0. 0. 0. 0. 0. 0. 0. 0. 0.],-1.9140625,-0.3046875,9.58203125,[0. 0. 0. 0. 0. 0. 0. 0. 0.]
1742666895633257912,1742666895,631276041,imu_link,-0.01556396484375,0.09814453125,-0.0008544921875,0.99505615234375,[0. 0. 0. 0. 0. 0. 0. 0. 0.],0.0,0.0,0.0,[0. 0. 0. 0. 0. 0. 0. 0. 0.],-1.9140625,-0.3046875,9.58203125,[0. 0. 0. 0. 0. 0. 0. 0. 0.]
1742666895666821689,1742666895,651006634,imu_link,-0.01556396484375,0.09808349609375,-0.0008544921875,0.99505615234375,[0. 0. 0. 0. 0. 0. 0. 0. 0.],0.0,0.0,0.0,[0. 0. 0. 0. 0. 0. 0. 0. 0.],-1.9140625,-0.3046875,9.58203125,[0. 0. 0. 0. 0. 0. 0. 0. 0.]
1742666895673261893,1742666895,670986930,imu_link,-0.01556396484375,0.09808349609375,-0.0008544921875,0.99505615234375,[0. 0. 0. 0. 0. 0. 0. 0. 0.],0.0,0.0,0.0,[0. 0. 0. 0. 0. 0. 0. 0. 0.],-1.9140625,-0.3046875,9.58203125,[0. 0. 0. 0. 0. 0. 0. 0. 0.]
1742666895697800023,1742666895,691013838,imu_link,-0.01556396484375,0.09808349609375,-0.0008544921875,0.99505615234375,[0. 0. 0. 0. 0. 0. 0. 0. 0.],0.0,0.0,0.0,[0. 0. 0. 0. 0. 0. 0. 0. 0.],-1.9140625,-0.3046875,9.58203125,[0. 0. 0. 0. 0. 0. 0. 0. 0.]
1742666895723034930,1742666895,711060338,imu_link,-0.01556396484375,0.09808349609375,-0.0008544921875,0.99505615234375,[0. 0. 0. 0. 0. 0. 0. 0. 0.],0.0,0.0,0.0,[0. 0. 0. 0. 0. 0. 0. 0. 0.],-1.9140625,-0.3046875,9.58203125,[0. 0. 0. 0. 0. 0. 0. 0. 0.]
1742666895732717115,1742666895,730991004,imu_link,-0.01556396484375,0.09808349609375,-0.0008544921875,0.99505615234375,[0. 0. 0. 0. 0. 0. 0. 0. 0.],0.0,0.0,0.0,[0. 0. 0. 0. 0. 0. 0. 0. 0.],-1.9140625,-0.3046875,9.58203125,[0. 0. 0. 0. 0. 0. 0. 0. 0.]
1742666895752808041,1742666895,751027356,imu_link,-0.01556396484375,0.09808349609375,-0.0008544921875,0.99505615234375,[0. 0. 0. 0. 0. 0. 0. 0. 0.],0.0,0.0,0.0,[0. 0. 0. 0. 0. 0. 0. 0. 0.],-1.9140625,-0.3046875,9.58203125,[0. 0. 0. 0. 0. 0. 0. 0. 0.]
1742666895778039652,1742666895,771117208,imu_link,-0.01556396484375,0.09808349609375,-0.0008544921875,0.99505615234375,[0. 0. 0. 0. 0. 0. 0. 0. 0.],0.0,0.0,0.0,[0. 0. 0. 0. 0. 0. 0. 0. 0.],-1.9140625,-0.3046875,9.58203125,[0. 0. 0. 0. 0. 0. 0. 0. 0.]
1742666895797645560,1742666895,790988060,imu_link,-0.01556396484375,0.09808349609375,-0.0008544921875,0.99505615234375,[0. 0. 0. 0. 0. 0. 0. 0. 0.],0.0,0.0,0.0,[0. 0. 0. 0. 0. 0. 0. 0. 0.],-1.9140625,-0.3046875,9.58203125,[0. 0. 0. 0. 0. 0. 0. 0. 0.]
1742666895822860134,1742666895,811101338,imu_link,-0.01556396484375,0.09808349609375,-0.0008544921875,0.99505615234375,[0. 0. 0. 0. 0. 0. 0. 0. 0.],0.0,0.0,0.0,[0. 0. 0. 0. 0. 0. 0. 0. 0.],-1.87890625,-0.3046875,9.578125,[0. 0. 0. 0. 0. 0. 0. 0. 0.]
1742666895841376226,1742666895,830983689,imu_link,-0.01556396484375,0.09808349609375,-0.0008544921875,0.99505615234375,[0. 0. 0. 0. 0. 0. 0. 0. 0.],0.0,0.0,0.0,[0. 0. 0. 0. 0. 0. 0. 0. 0.],-1.9140625,-0.3046875,9.58203125,[0. 0. 0. 0. 0. 0. 0. 0. 0.]
1742666895852890134,1742666895,851074245,imu_link,-0.01556396484375,0.09808349609375,-0.0008544921875,0.99505615234375,[0. 0. 0. 0. 0. 0. 0. 0. 0.],0.0,0.0,0.0,[0. 0. 0. 0. 0. 0. 0. 0. 0.],-1.9140625,-0.3046875,9.58203125,[0. 0. 0. 0. 0. 0. 0. 0. 0.]
1742666895872705782,1742666895,870964578,imu_link,-0.01556396484375,0.09808349609375,-0.0008544921875,0.99505615234375,[0. 0. 0. 0. 0. 0. 0. 0. 0.],0.0,0.0,0.0,[0. 0. 0. 0. 0. 0. 0. 0. 0.],-1.9140625,-0.3046875,9.58203125,[0. 0. 0. 0. 0. 0. 0. 0. 0.]
1742666895901560134,1742666895,891067134,imu_link,-0.01556396484375,0.09808349609375,-0.0008544921875,0.99505615234375,[0. 0. 0. 0. 0. 0. 0. 0. 0.],0.0,0.0,0.0,[0. 0. 0. 0. 0. 0. 0. 0. 0.],-1.87890625,-0.3046875,9.578125,[0. 0. 0. 0. 0. 0. 0. 0. 0.]
1742666895922761171,1742666895,911040282,imu_link,-0.01556396484375,0.09808349609375,-0.0008544921875,0.99505615234375,[0. 0. 0. 0. 0. 0. 0. 0. 0.],0.0,0.0,0.0,[0. 0. 0. 0. 0. 0. 0. 0. 0.],-1.87890625,-0.3046875,9.578125,[0. 0. 0. 0. 0. 0. 0. 0. 0.]
1742666895941403782,1742666895,930970652,imu_link,-0.01556396484375,0.09808349609375,-0.0008544921875,0.99505615234375,[0. 0. 0. 0. 0. 0. 0. 0. 0.],0.0,0.0,0.0,[0. 0. 0. 0. 0. 0. 0. 0. 0.],-1.9140625,-0.3046875,9.58203125,[0. 0. 0. 0. 0. 0. 0. 0. 0.]
1742666895964521411,1742666895,951301911,imu_link,-0.01556396484375,0.09808349609375,-0.0008544921875,0.99505615234375,[0. 0. 0. 0. 0. 0. 0. 0. 0.],0.0,0.0,0.0,[0. 0. 0. 0. 0. 0. 0. 0. 0.],-1.9140625,-0.3046875,9.58203125,[0. 0. 0. 0. 0. 0. 0. 0. 0.]
1742666895972824041,1742666895,971037819,imu_link,-0.01556396484375,0.09808349609375,-0.0008544921875,0.99505615234375,[0. 0. 0. 0. 0. 0. 0. 0. 0.],0.0,0.0,0.0,[0. 0. 0. 0. 0. 0. 0. 0. 0.],-1.9140625,-0.3046875,9.58203125,[0. 0. 0. 0. 0. 0. 0. 0. 0.]
1742666896001578578,1742666895,991090930,imu_link,-0.01556396484375,0.09808349609375,-0.0008544921875,0.99505615234375,[0. 0. 0. 0. 0. 0. 0. 0. 0.],0.0,0.0,0.0,[0. 0. 0. 0. 0. 0. 0. 0. 0.],-1.87890625,-0.3046875,9.5390625,[0. 0. 0. 0. 0. 0. 0. 0. 0.]
1742666896028066245,1742666896,11048986,imu_link,-0.01556396484375,0.09808349609375,-0.0008544921875,0.99505615234375,[0. 0. 0. 0. 0. 0. 0. 0. 0.],0.0,0.0,0.0,[0. 0. 0. 0. 0. 0. 0. 0. 0.],-1.9140625,-0.3046875,9.58203125,[0. 0. 0. 0. 0. 0. 0. 0. 0.]
1742666896040250448,1742666896,31414893,imu_link,-0.01556396484375,0.09808349609375,-0.0008544921875,0.99505615234375,[0. 0. 0. 0. 0. 0. 0. 0. 0.],0.0,0.0,0.0,[0. 0. 0. 0. 0. 0. 0. 0. 0.],-1.9140625,-0.3046875,9.58203125,[0. 0. 0. 0. 0. 0. 0. 0. 0.]
1742666896066844319,1742666896,51387189,imu_link,-0.01556396484375,0.09808349609375,-0.0008544921875,0.99505615234375,[0. 0. 0. 0. 0. 0. 0. 0. 0.],0.0,0.0,0.0,[0. 0. 0. 0. 0. 0. 0. 0. 0.],-1.9140625,-0.3046875,9.58203125,[0. 0. 0. 0. 0. 0. 0. 0. 0.]
1742666896073404300,1742666896,70979300,imu_link,-0.01556396484375,0.09808349609375,-0.0008544921875,0.99505615234375,[0. 0. 0. 0. 0. 0. 0. 0. 0.],0.0,0.0,0.0,[0. 0. 0. 0. 0. 0. 0. 0. 0.],-1.9140625,-0.3046875,9.58203125,[0. 0. 0. 0. 0. 0. 0. 0. 0.]
1742666896101578004,1742666896,91050856,imu_link,-0.01556396484375,0.09808349609375,-0.0008544921875,0.99505615234375,[0. 0. 0. 0. 0. 0. 0. 0. 0.],0.0,0.0,0.0,[0. 0. 0. 0. 0. 0. 0. 0. 0.],-1.9140625,-0.3046875,9.58203125,[0. 0. 0. 0. 0. 0. 0. 0. 0.]
1742666896124120819,1742666896,111023374,imu_link,-0.01556396484375,0.09808349609375,-0.0008544921875,0.99505615234375,[0. 0. 0. 0. 0. 0. 0. 0. 0.],0.0,0.0,0.0,[0. 0. 0. 0. 0. 0. 0. 0. 0.],-1.9140625,-0.3046875,9.58203125,[0. 0. 0. 0. 0. 0. 0. 0. 0.]
1742666896137165134,1742666896,131083300,imu_link,-0.01556396484375,0.09808349609375,-0.0008544921875,0.99505615234375,[0. 0. 0. 0. 0. 0. 0. 0. 0.],0.0,0.0,0.0,[0. 0. 0. 0. 0. 0. 0. 0. 0.],-1.9140625,-0.3046875,9.58203125,[0. 0. 0. 0. 0. 0. 0. 0. 0.]
1742666896167640911,1742666896,151018560,imu_link,-0.01556396484375,0.09808349609375,-0.0008544921875,0.99505615234375,[0. 0. 0. 0. 0. 0. 0. 0. 0.],0.0,0.0,0.0,[0. 0. 0. 0. 0. 0. 0. 0. 0.],-1.9140625,-0.3046875,9.58203125,[0. 0. 0. 0. 0. 0. 0. 0. 0.]
1742666896172857874,1742666896,171004041,imu_link,-0.01556396484375,0.09808349609375,-0.0008544921875,0.99505615234375,[0. 0. 0. 0. 0. 0. 0. 0. 0.],0.0,0.0,0.0,[0. 0. 0. 0. 0. 0. 0. 0. 0.],-1.9140625,-0.3046875,9.58203125,[0. 0. 0. 0. 0. 0. 0. 0. 0.]
1742666896201009226,1742666896,191032874,imu_link,-0.01556396484375,0.09808349609375,-0.0008544921875,0.99505615234375,[0. 0. 0. 0. 0. 0. 0. 0. 0.],0.0,0.0,0.0,[0. 0. 0. 0. 0. 0. 0. 0. 0.],-1.87890625,-0.3046875,9.578125,[0. 0. 0. 0. 0. 0. 0. 0. 0.]
1742666896219065337,1742666896,215632022,imu_link,-0.01556396484375,0.09808349609375,-0.0008544921875,0.99505615234375,[0. 0. 0. 0. 0. 0. 0. 0. 0.],0.0,0.0,0.0,[0. 0. 0. 0. 0. 0. 0. 0. 0.],-1.9140625,-0.3046875,9.58203125,[0. 0. 0. 0. 0. 0. 0. 0. 0.]
1742666896232758467,1742666896,231000615,imu_link,-0.01556396484375,0.09808349609375,-0.0008544921875,0.99505615234375,[0. 0. 0. 0. 0. 0. 0. 0. 0.],0.0,0.0,0.0,[0. 0. 0. 0. 0. 0. 0. 0. 0.],-1.9140625,-0.3046875,9.58203125,[0. 0. 0. 0. 0. 0. 0. 0. 0.]
1742666896266874245,1742666896,251012059,imu_link,-0.01556396484375,0.09808349609375,-0.0008544921875,0.99505615234375,[0. 0. 0. 0. 0. 0. 0. 0. 0.],0.0,0.0,0.0,[0. 0. 0. 0. 0. 0. 0. 0. 0.],-1.9140625,-0.3046875,9.58203125,[0. 0. 0. 0. 0. 0. 0. 0. 0.]
1742666896278330985,1742666896,271205652,imu_link,-0.01556396484375,0.09808349609375,-0.0008544921875,0.99505615234375,[0. 0. 0. 0. 0. 0. 0. 0. 0.],0.0,0.0,0.0,[0. 0. 0. 0. 0. 0. 0. 0. 0.],-1.9140625,-0.3046875,9.58203125,[0. 0. 0. 0. 0. 0. 0. 0. 0.]
1742666896297952652,1742666896,291025930,imu_link,-0.01556396484375,0.09808349609375,-0.0008544921875,0.99505615234375,[0. 0. 0. 0. 0. 0. 0. 0. 0.],0.0,0.0,0.0,[0. 0. 0. 0. 0. 0. 0. 0. 0.],-1.9140625,-0.3046875,9.58203125,[0. 0. 0. 0. 0. 0. 0. 0. 0.]
1742666896326738263,1742666896,311079893,imu_link,-0.01556396484375,0.09808349609375,-0.0008544921875,0.99505615234375,[0. 0. 0. 0. 0. 0. 0. 0. 0.],0.0,0.0,0.0,[0. 0. 0. 0. 0. 0. 0. 0. 0.],-1.87890625,-0.3046875,9.578125,[0. 0. 0. 0. 0. 0. 0. 0. 0.]
1742666896341755171,1742666896,330970282,imu_link,-0.01556396484375,0.09808349609375,-0.0008544921875,0.99505615234375,[0. 0. 0. 0. 0. 0. 0. 0. 0.],0.0,0.0,0.0,[0. 0. 0. 0. 0. 0. 0. 0. 0.],-1.87890625,-0.3046875,9.578125,[0. 0. 0. 0. 0. 0. 0. 0. 0.]
1742666896362478448,1742666896,351037004,imu_link,-0.01556396484375,0.09808349609375,-0.0008544921875,0.99505615234375,[0. 0. 0. 0. 0. 0. 0. 0. 0.],0.0,0.0,0.0,[0. 0. 0. 0. 0. 0. 0. 0. 0.],-1.87890625,-0.3046875,9.578125,[0. 0. 0. 0. 0. 0. 0. 0. 0.]
1742666896377848263,1742666896,371068967,imu_link,-0.01556396484375,0.09808349609375,-0.0008544921875,0.99505615234375,[0. 0. 0. 0. 0. 0. 0. 0. 0.],0.0,0.0,0.0,[0. 0. 0. 0. 0. 0. 0. 0. 0.],-1.9140625,-0.3046875,9.58203125,[0. 0. 0. 0. 0. 0. 0. 0. 0.]
1742666896397075670,1742666896,391036782,imu_link,-0.01556396484375,0.09808349609375,-0.0008544921875,0.99505615234375,[0. 0. 0. 0. 0. 0. 0. 0. 0.],0.0,0.0,0.0,[0. 0. 0. 0. 0. 0. 0. 0. 0.],-1.9140625,-0.3046875,9.58203125,[0. 0. 0. 0. 0. 0. 0. 0. 0.]
1742666896414406078,1742666896,411245430,imu_link,-0.01556396484375,0.09808349609375,-0.0008544921875,0.99505615234375,[0. 0. 0. 0. 0. 0. 0. 0. 0.],0.0,0.0,0.0,[0. 0. 0. 0. 0. 0. 0. 0. 0.],-1.9140625,-0.3046875,9.58203125,[0. 0. 0. 0. 0. 0. 0. 0. 0.]
1742666896441645837,1742666896,431069726,imu_link,-0.01556396484375,0.09808349609375,-0.0008544921875,0.99505615234375,[0. 0. 0. 0. 0. 0. 0. 0. 0.],0.0,0.0,0.0,[0. 0. 0. 0. 0. 0. 0. 0. 0.],-1.9140625,-0.3046875,9.58203125,[0. 0. 0. 0. 0. 0. 0. 0. 0.]
1742666896462686985,1742666896,451117800,imu_link,-0.01556396484375,0.09808349609375,-0.0008544921875,0.99505615234375,[0. 0. 0. 0. 0. 0. 0. 0. 0.],0.0,0.0,0.0,[0. 0. 0. 0. 0. 0. 0. 0. 0.],-1.9140625,-0.3046875,9.58203125,[0. 0. 0. 0. 0. 0. 0. 0. 0.]
1742666896473956652,1742666896,470968856,imu_link,-0.01556396484375,0.09808349609375,-0.0008544921875,0.99505615234375,[0. 0. 0. 0. 0. 0. 0. 0. 0.],0.0,0.0,0.0,[0. 0. 0. 0. 0. 0. 0. 0. 0.],-1.9140625,-0.3046875,9.58203125,[0. 0. 0. 0. 0. 0. 0. 0. 0.]
1742666896500911504,1742666896,491077652,imu_link,-0.01556396484375,0.09808349609375,-0.0008544921875,0.99505615234375,[0. 0. 0. 0. 0. 0. 0. 0. 0.],0.0,0.0,0.0,[0. 0. 0. 0. 0. 0. 0. 0. 0.],-1.9140625,-0.3046875,9.58203125,[0. 0. 0. 0. 0. 0. 0. 0. 0.]
1742666896515575985,1742666896,512189856,imu_link,-0.01556396484375,0.09808349609375,-0.0008544921875,0.99505615234375,[0. 0. 0. 0. 0. 0. 0. 0. 0.],0.0,0.0,0.0,[0. 0. 0. 0. 0. 0. 0. 0. 0.],-1.9140625,-0.3046875,9.58203125,[0. 0. 0. 0. 0. 0. 0. 0. 0.]
1742666896541626596,1742666896,531046300,imu_link,-0.01556396484375,0.09808349609375,-0.0008544921875,0.99505615234375,[0. 0. 0. 0. 0. 0. 0. 0. 0.],0.0,0.0,0.0,[0. 0. 0. 0. 0. 0. 0. 0. 0.],-1.9140625,-0.3046875,9.58203125,[0. 0. 0. 0. 0. 0. 0. 0. 0.]
1742666896566575596,1742666896,551008633,imu_link,-0.01556396484375,0.09808349609375,-0.0008544921875,0.99505615234375,[0. 0. 0. 0. 0. 0. 0. 0. 0.],0.0,0.0,0.0,[0. 0. 0. 0. 0. 0. 0. 0. 0.],-1.9140625,-0.3046875,9.58203125,[0. 0. 0. 0. 0. 0. 0. 0. 0.]
1742666896573919874,1742666896,570957115,imu_link,-0.01556396484375,0.09808349609375,-0.0008544921875,0.99505615234375,[0. 0. 0. 0. 0. 0. 0. 0. 0.],0.0,0.0,0.0,[0. 0. 0. 0. 0. 0. 0. 0. 0.],-1.9140625,-0.3046875,9.58203125,[0. 0. 0. 0. 0. 0. 0. 0. 0.]
1742666896611415930,1742666896,591039633,imu_link,-0.01556396484375,0.09808349609375,-0.0008544921875,0.99505615234375,[0. 0. 0. 0. 0. 0. 0. 0. 0.],0.0,0.0,0.0,[0. 0. 0. 0. 0. 0. 0. 0. 0.],-1.9140625,-0.3046875,9.58203125,[0. 0. 0. 0. 0. 0. 0. 0. 0.]
1742666896618079337,1742666896,614162152,imu_link,-0.01556396484375,0.09808349609375,-0.0008544921875,0.99505615234375,[0. 0. 0. 0. 0. 0. 0. 0. 0.],0.0,0.0,0.0,[0. 0. 0. 0. 0. 0. 0. 0. 0.],-1.9140625,-0.3046875,9.58203125,[0. 0. 0. 0. 0. 0. 0. 0. 0.]
1742666896639170615,1742666896,631079615,imu_link,-0.01556396484375,0.09808349609375,-0.0008544921875,0.99505615234375,[0. 0. 0. 0. 0. 0. 0. 0. 0.],0.0,0.0,0.0,[0. 0. 0. 0. 0. 0. 0. 0. 0.],-1.9140625,-0.3046875,9.58203125,[0. 0. 0. 0. 0. 0. 0. 0. 0.]
1742666896665588800,1742666896,651050467,imu_link,-0.01556396484375,0.09808349609375,-0.0008544921875,0.99505615234375,[0. 0. 0. 0. 0. 0. 0. 0. 0.],0.0,0.0,0.0,[0. 0. 0. 0. 0. 0. 0. 0. 0.],-1.87890625,-0.3046875,9.578125,[0. 0. 0. 0. 0. 0. 0. 0. 0.]
1742666896673958578,1742666896,670975744,imu_link,-0.01556396484375,0.09808349609375,-0.0008544921875,0.99505615234375,[0. 0. 0. 0. 0. 0. 0. 0. 0.],0.0,0.0,0.0,[0. 0. 0. 0. 0. 0. 0. 0. 0.],-1.87890625,-0.3046875,9.578125,[0. 0. 0. 0. 0. 0. 0. 0. 0.]
1742666896711381170,1742666896,691118985,imu_link,-0.01556396484375,0.09808349609375,-0.0008544921875,0.99505615234375,[0. 0. 0. 0. 0. 0. 0. 0. 0.],0.0,0.0,0.0,[0. 0. 0. 0. 0. 0. 0. 0. 0.],-1.9140625,-0.3046875,9.58203125,[0. 0. 0. 0. 0. 0. 0. 0. 0.]
1742666896720022170,1742666896,713514911,imu_link,-0.01556396484375,0.09808349609375,-0.0008544921875,0.99505615234375,[0. 0. 0. 0. 0. 0. 0. 0. 0.],0.0,0.0,0.0,[0. 0. 0. 0. 0. 0. 0. 0. 0.],-1.9140625,-0.3046875,9.58203125,[0. 0. 0. 0. 0. 0. 0. 0. 0.]
1742666896739114004,1742666896,730980096,imu_link,-0.01556396484375,0.09808349609375,-0.0008544921875,0.99505615234375,[0. 0. 0. 0. 0. 0. 0. 0. 0.],0.0,0.0,0.0,[0. 0. 0. 0. 0. 0. 0. 0. 0.],-1.9140625,-0.3046875,9.58203125,[0. 0. 0. 0. 0. 0. 0. 0. 0.]
1742666896766576411,1742666896,750986152,imu_link,-0.01556396484375,0.09808349609375,-0.0008544921875,0.99505615234375,[0. 0. 0. 0. 0. 0. 0. 0. 0.],0.0,0.0,0.0,[0. 0. 0. 0. 0. 0. 0. 0. 0.],-1.9140625,-0.3046875,9.58203125,[0. 0. 0. 0. 0. 0. 0. 0. 0.]
1742666896774119226,1742666896,770978170,imu_link,-0.01556396484375,0.09808349609375,-0.0008544921875,0.99505615234375,[0. 0. 0. 0. 0. 0. 0. 0. 0.],0.0,0.0,0.0,[0. 0. 0. 0. 0. 0. 0. 0. 0.],-1.9140625,-0.3046875,9.58203125,[0. 0. 0. 0. 0. 0. 0. 0. 0.]
1742666896814141559,1742666896,791019226,imu_link,-0.01556396484375,0.09808349609375,-0.0008544921875,0.99505615234375,[0. 0. 0. 0. 0. 0. 0. 0. 0.],0.0,0.0,0.0,[0. 0. 0. 0. 0. 0. 0. 0. 0.],-1.9140625,-0.26953125,9.578125,[0. 0. 0. 0. 0. 0. 0. 0. 0.]
1742666896819501059,1742666896,816692929,imu_link,-0.01556396484375,0.09808349609375,-0.0008544921875,0.99505615234375,[0. 0. 0. 0. 0. 0. 0. 0. 0.],0.0,0.0,0.0,[0. 0. 0. 0. 0. 0. 0. 0. 0.],-1.9140625,-0.3046875,9.58203125,[0. 0. 0. 0. 0. 0. 0. 0. 0.]
1742666896838363115,1742666896,830988411,imu_link,-0.01556396484375,0.09808349609375,-0.0008544921875,0.99505615234375,[0. 0. 0. 0. 0. 0. 0. 0. 0.],0.0,0.0,0.0,[0. 0. 0. 0. 0. 0. 0. 0. 0.],-1.9140625,-0.3046875,9.58203125,[0. 0. 0. 0. 0. 0. 0. 0. 0.]
1742666896865301892,1742666896,851044541,imu_link,-0.01556396484375,0.09808349609375,-0.0008544921875,0.99505615234375,[0. 0. 0. 0. 0. 0. 0. 0. 0.],0.0,0.0,0.0,[0. 0. 0. 0. 0. 0. 0. 0. 0.],-1.9140625,-0.3046875,9.58203125,[0. 0. 0. 0. 0. 0. 0. 0. 0.]
1742666896878420374,1742666896,870959559,imu_link,-0.01556396484375,0.09808349609375,-0.0008544921875,0.99505615234375,[0. 0. 0. 0. 0. 0. 0. 0. 0.],0.0,0.0,0.0,[0. 0. 0. 0. 0. 0. 0. 0. 0.],-1.9140625,-0.3046875,9.58203125,[0. 0. 0. 0. 0. 0. 0. 0. 0.]
1742666896899071800,1742666896,891033633,imu_link,-0.01556396484375,0.09808349609375,-0.0008544921875,0.99505615234375,[0. 0. 0. 0. 0. 0. 0. 0. 0.],0.0,0.0,0.0,[0. 0. 0. 0. 0. 0. 0. 0. 0.],-1.9140625,-0.3046875,9.58203125,[0. 0. 0. 0. 0. 0. 0. 0. 0.]
1742666896925860300,1742666896,911089096,imu_link,-0.01556396484375,0.09808349609375,-0.0008544921875,0.99505615234375,[0. 0. 0. 0. 0. 0. 0. 0. 0.],0.0,0.0,0.0,[0. 0. 0. 0. 0. 0. 0. 0. 0.],-1.9140625,-0.3046875,9.58203125,[0. 0. 0. 0. 0. 0. 0. 0. 0.]
1742666896941192726,1742666896,930969466,imu_link,-0.01556396484375,0.09808349609375,-0.0008544921875,0.99505615234375,[0. 0. 0. 0. 0. 0. 0. 0. 0.],0.0,0.0,0.0,[0. 0. 0. 0. 0. 0. 0. 0. 0.],-1.9140625,-0.3046875,9.58203125,[0. 0. 0. 0. 0. 0. 0. 0. 0.]
1742666896963929966,1742666896,951152337,imu_link,-0.01556396484375,0.09808349609375,-0.0008544921875,0.99505615234375,[0. 0. 0. 0. 0. 0. 0. 0. 0.],0.0,0.0,0.0,[0. 0. 0. 0. 0. 0. 0. 0. 0.],-1.9140625,-0.3046875,9.58203125,[0. 0. 0. 0. 0. 0. 0. 0. 0.]
1742666896978883226,1742666896,970983041,imu_link,-0.01556396484375,0.09808349609375,-0.0008544921875,0.99505615234375,[0. 0. 0. 0. 0. 0. 0. 0. 0.],0.0,0.0,0.0,[0. 0. 0. 0. 0. 0. 0. 0. 0.],-1.9140625,-0.3046875,9.58203125,[0. 0. 0. 0. 0. 0. 0. 0. 0.]
1742666897011218374,1742666896,991045744,imu_link,-0.01556396484375,0.09808349609375,-0.0008544921875,0.99505615234375,[0. 0. 0. 0. 0. 0. 0. 0. 0.],0.0,0.0,0.0,[0. 0. 0. 0. 0. 0. 0. 0. 0.],-1.9140625,-0.3046875,9.58203125,[0. 0. 0. 0. 0. 0. 0. 0. 0.]
1742666897016704263,1742666897,13362318,imu_link,-0.01556396484375,0.09808349609375,-0.0008544921875,0.99505615234375,[0. 0. 0. 0. 0. 0. 0. 0. 0.],0.0,0.0,0.0,[0. 0. 0. 0. 0. 0. 0. 0. 0.],-1.9140625,-0.3046875,9.58203125,[0. 0. 0. 0. 0. 0. 0. 0. 0.]
1742666897042306763,1742666897,31071429,imu_link,-0.01556396484375,0.09808349609375,-0.0008544921875,0.99505615234375,[0. 0. 0. 0. 0. 0. 0. 0. 0.],0.0,0.0,0.0,[0. 0. 0. 0. 0. 0. 0. 0. 0.],-1.9140625,-0.3046875,9.58203125,[0. 0. 0. 0. 0. 0. 0. 0. 0.]
1742666897068280374,1742666897,51009244,imu_link,-0.01556396484375,0.09814453125,-0.0008544921875,0.99505615234375,[0. 0. 0. 0. 0. 0. 0. 0. 0.],0.0,0.0,0.0,[0. 0. 0. 0. 0. 0. 0. 0. 0.],-1.9140625,-0.3046875,9.58203125,[0. 0. 0. 0. 0. 0. 0. 0. 0.]
1742666897074353429,1742666897,70962744,imu_link,-0.01556396484375,0.09814453125,-0.0008544921875,0.99505615234375,[0. 0. 0. 0. 0. 0. 0. 0. 0.],0.0,0.0,0.0,[0. 0. 0. 0. 0. 0. 0. 0. 0.],-1.9140625,-0.3046875,9.58203125,[0. 0. 0. 0. 0. 0. 0. 0. 0.]
1742666897109927059,1742666897,90994652,imu_link,-0.01556396484375,0.09814453125,-0.0008544921875,0.99505615234375,[0. 0. 0. 0. 0. 0. 0. 0. 0.],0.0,0.0,0.0,[0. 0. 0. 0. 0. 0. 0. 0. 0.],-1.9140625,-0.3046875,9.58203125,[0. 0. 0. 0. 0. 0. 0. 0. 0.]
1742666897115547874,1742666897,112220837,imu_link,-0.01556396484375,0.09814453125,-0.0008544921875,0.99505615234375,[0. 0. 0. 0. 0. 0. 0. 0. 0.],0.0,0.0,0.0,[0. 0. 0. 0. 0. 0. 0. 0. 0.],-1.9140625,-0.3046875,9.58203125,[0. 0. 0. 0. 0. 0. 0. 0. 0.]
1742666897141877040,1742666897,131088911,imu_link,-0.01556396484375,0.09814453125,-0.0008544921875,0.99505615234375,[0. 0. 0. 0. 0. 0. 0. 0. 0.],0.0,0.0,0.0,[0. 0. 0. 0. 0. 0. 0. 0. 0.],-1.9140625,-0.3046875,9.58203125,[0. 0. 0. 0. 0. 0. 0. 0. 0.]
1742666897165990929,1742666897,151017818,imu_link,-0.01556396484375,0.09814453125,-0.0008544921875,0.99505615234375,[0. 0. 0. 0. 0. 0. 0. 0. 0.],0.0,0.0,0.0,[0. 0. 0. 0. 0. 0. 0. 0. 0.],-1.9140625,-0.3046875,9.58203125,[0. 0. 0. 0. 0. 0. 0. 0. 0.]
1742666897174348503,1742666897,170967411,imu_link,-0.01556396484375,0.09814453125,-0.0008544921875,0.99505615234375,[0. 0. 0. 0. 0. 0. 0. 0. 0.],0.0,0.0,0.0,[0. 0. 0. 0. 0. 0. 0. 0. 0.],-1.9140625,-0.3046875,9.58203125,[0. 0. 0. 0. 0. 0. 0. 0. 0.]
1742666897211557281,1742666897,191029207,imu_link,-0.01556396484375,0.09820556640625,-0.0008544921875,0.99505615234375,[0. 0. 0. 0. 0. 0. 0. 0. 0.],0.0,0.0,0.0,[0. 0. 0. 0. 0. 0. 0. 0. 0.],-1.9140625,-0.3046875,9.58203125,[0. 0. 0. 0. 0. 0. 0. 0. 0.]
1742666897217504170,1742666897,214122281,imu_link,-0.01556396484375,0.09820556640625,-0.0008544921875,0.99505615234375,[0. 0. 0. 0. 0. 0. 0. 0. 0.],0.0,0.0,0.0,[0. 0. 0. 0. 0. 0. 0. 0. 0.],-1.9140625,-0.3046875,9.58203125,[0. 0. 0. 0. 0. 0. 0. 0. 0.]
1742666897241868355,1742666897,231010133,imu_link,-0.01556396484375,0.09820556640625,-0.0008544921875,0.99505615234375,[0. 0. 0. 0. 0. 0. 0. 0. 0.],0.0,0.0,0.0,[0. 0. 0. 0. 0. 0. 0. 0. 0.],-1.9140625,-0.3046875,9.58203125,[0. 0. 0. 0. 0. 0. 0. 0. 0.]
1742666897264559188,1742666897,250986300,imu_link,-0.01556396484375,0.09820556640625,-0.0008544921875,0.99505615234375,[0. 0. 0. 0. 0. 0. 0. 0. 0.],0.0,0.0,0.0,[0. 0. 0. 0. 0. 0. 0. 0. 0.],-1.9140625,-0.3046875,9.58203125,[0. 0. 0. 0. 0. 0. 0. 0. 0.]
1742666897274096985,1742666897,270994207,imu_link,-0.01556396484375,0.09820556640625,-0.0008544921875,0.99505615234375,[0. 0. 0. 0. 0. 0. 0. 0. 0.],0.0,0.0,0.0,[0. 0. 0. 0. 0. 0. 0. 0. 0.],-1.9140625,-0.3046875,9.58203125,[0. 0. 0. 0. 0. 0. 0. 0. 0.]
1742666897310239800,1742666897,291017892,imu_link,-0.01556396484375,0.09820556640625,-0.0008544921875,0.99505615234375,[0. 0. 0. 0. 0. 0. 0. 0. 0.],0.0,0.0,0.0,[0. 0. 0. 0. 0. 0. 0. 0. 0.],-1.87890625,-0.3046875,9.578125,[0. 0. 0. 0. 0. 0. 0. 0. 0.]
1742666897319709522,1742666897,312859929,imu_link,-0.01556396484375,0.09820556640625,-0.0008544921875,0.99505615234375,[0. 0. 0. 0. 0. 0. 0. 0. 0.],0.0,0.0,0.0,[0. 0. 0. 0. 0. 0. 0. 0. 0.],-1.87890625,-0.3046875,9.578125,[0. 0. 0. 0. 0. 0. 0. 0. 0.]
1742666897338273855,1742666897,331000374,imu_link,-0.01556396484375,0.09820556640625,-0.0008544921875,0.99505615234375,[0. 0. 0. 0. 0. 0. 0. 0. 0.],0.0,0.0,0.0,[0. 0. 0. 0. 0. 0. 0. 0. 0.],-1.87890625,-0.3046875,9.578125,[0. 0. 0. 0. 0. 0. 0. 0. 0.]
1742666897365465485,1742666897,351073114,imu_link,-0.01556396484375,0.09820556640625,-0.0008544921875,0.99505615234375,[0. 0. 0. 0. 0. 0. 0. 0. 0.],0.0,0.0,0.0,[0. 0. 0. 0. 0. 0. 0. 0. 0.],-1.9140625,-0.3046875,9.58203125,[0. 0. 0. 0. 0. 0. 0. 0. 0.]
1742666897374327466,1742666897,370962855,imu_link,-0.01556396484375,0.09820556640625,-0.0008544921875,0.99505615234375,[0. 0. 0. 0. 0. 0. 0. 0. 0.],0.0,0.0,0.0,[0. 0. 0. 0. 0. 0. 0. 0. 0.],-1.9140625,-0.3046875,9.58203125,[0. 0. 0. 0. 0. 0. 0. 0. 0.]
1742666897410836762,1742666897,391055059,imu_link,-0.01556396484375,0.09820556640625,-0.00079345703125,0.99505615234375,[0. 0. 0. 0. 0. 0. 0. 0. 0.],0.0,0.0,0.0,[0. 0. 0. 0. 0. 0. 0. 0. 0.],-1.87890625,-0.34375,9.58203125,[0. 0. 0. 0. 0. 0. 0. 0. 0.]
1742666897419947762,1742666897,418170096,imu_link,-0.01556396484375,0.09820556640625,-0.00079345703125,0.99505615234375,[0. 0. 0. 0. 0. 0. 0. 0. 0.],0.0,0.0,0.0,[0. 0. 0. 0. 0. 0. 0. 0. 0.],-1.68359375,-0.49609375,9.5390625,[0. 0. 0. 0. 0. 0. 0. 0. 0.]
1742666897438260355,1742666897,431028577,imu_link,-0.01556396484375,0.09820556640625,-0.00079345703125,0.99505615234375,[0. 0. 0. 0. 0. 0. 0. 0. 0.],0.017578125,-0.001953125,0.052734375,[0. 0. 0. 0. 0. 0. 0. 0. 0.],-1.68359375,-0.49609375,9.5390625,[0. 0. 0. 0. 0. 0. 0. 0. 0.]
1742666897465915688,1742666897,451143818,imu_link,-0.01513671875,0.09814453125,0.00042724609375,0.99505615234375,[0. 0. 0. 0. 0. 0. 0. 0. 0.],0.017578125,-0.001953125,0.052734375,[0. 0. 0. 0. 0. 0. 0. 0. 0.],-1.265625,-0.7265625,9.578125,[0. 0. 0. 0. 0. 0. 0. 0. 0.]
1742666897477782059,1742666897,470957225,imu_link,-0.01513671875,0.09814453125,0.00042724609375,0.99505615234375,[0. 0. 0. 0. 0. 0. 0. 0. 0.],0.017578125,-0.001953125,0.052734375,[0. 0. 0. 0. 0. 0. 0. 0. 0.],-0.95703125,-0.84375,9.609375,[0. 0. 0. 0. 0. 0. 0. 0. 0.]
1742666897498716799,1742666897,491038392,imu_link,-0.01513671875,0.09814453125,0.00042724609375,0.99505615234375,[0. 0. 0. 0. 0. 0. 0. 0. 0.],0.021484375,0.001953125,0.1484375,[0. 0. 0. 0. 0. 0. 0. 0. 0.],-0.95703125,-0.84375,9.609375,[0. 0. 0. 0. 0. 0. 0. 0. 0.]
1742666897515038188,1742666897,511687188,imu_link,-0.01446533203125,0.09820556640625,0.0037841796875,0.99505615234375,[0. 0. 0. 0. 0. 0. 0. 0. 0.],0.021484375,0.001953125,0.1484375,[0. 0. 0. 0. 0. 0. 0. 0. 0.],-0.765625,-0.7265625,9.7265625,[0. 0. 0. 0. 0. 0. 0. 0. 0.]
1742666897541202170,1742666897,531059577,imu_link,-0.01446533203125,0.09820556640625,0.0037841796875,0.99505615234375,[0. 0. 0. 0. 0. 0. 0. 0. 0.],0.001953125,0.00390625,0.09375,[0. 0. 0. 0. 0. 0. 0. 0. 0.],-0.53515625,-0.61328125,9.6484375,[0. 0. 0. 0. 0. 0. 0. 0. 0.]
1742666897563701522,1742666897,551062003,imu_link,-0.0145263671875,0.09796142578125,0.0064697265625,0.99505615234375,[0. 0. 0. 0. 0. 0. 0. 0. 0.],0.001953125,0.00390625,0.09375,[0. 0. 0. 0. 0. 0. 0. 0. 0.],-0.53515625,-0.61328125,9.6484375,[0. 0. 0. 0. 0. 0. 0. 0. 0.]
1742666897578180966,1742666897,570978318,imu_link,-0.0145263671875,0.09796142578125,0.0064697265625,0.99505615234375,[0. 0. 0. 0. 0. 0. 0. 0. 0.],0.001953125,0.00390625,0.09375,[0. 0. 0. 0. 0. 0. 0. 0. 0.],-0.26953125,-0.57421875,9.7265625,[0. 0. 0. 0. 0. 0. 0. 0. 0.]
1742666897598889873,1742666897,590988966,imu_link,-0.0145263671875,0.09796142578125,0.0064697265625,0.99505615234375,[0. 0. 0. 0. 0. 0. 0. 0. 0.],-0.025390625,0.015625,0.142578125,[0. 0. 0. 0. 0. 0. 0. 0. 0.],-0.26953125,-0.57421875,9.7265625,[0. 0. 0. 0. 0. 0. 0. 0. 0.]
1742666897617069207,1742666897,613690170,imu_link,-0.01495361328125,0.097900390625,0.009765625,0.99505615234375,[0. 0. 0. 0. 0. 0. 0. 0. 0.],-0.025390625,0.015625,0.142578125,[0. 0. 0. 0. 0. 0. 0. 0. 0.],-0.765625,-0.421875,9.609375,[0. 0. 0. 0. 0. 0. 0. 0. 0.]
1742666897642433577,1742666897,631243966,imu_link,-0.01495361328125,0.097900390625,0.009765625,0.99505615234375,[0. 0. 0. 0. 0. 0. 0. 0. 0.],-0.0390625,0.013671875,0.1640625,[0. 0. 0. 0. 0. 0. 0. 0. 0.],-1.53125,0.15234375,9.578125,[0. 0. 0. 0. 0. 0. 0. 0. 0.]
1742666897668008818,1742666897,651070281,imu_link,-0.01531982421875,0.0977783203125,0.01373291015625,0.9949951171875,[0. 0. 0. 0. 0. 0. 0. 0. 0.],-0.0390625,0.013671875,0.1640625,[0. 0. 0. 0. 0. 0. 0. 0. 0.],-2.18359375,0.23046875,9.54296875,[0. 0. 0. 0. 0. 0. 0. 0. 0.]
1742666897674347540,1742666897,670972503,imu_link,-0.01531982421875,0.0977783203125,0.01373291015625,0.9949951171875,[0. 0. 0. 0. 0. 0. 0. 0. 0.],-0.0390625,0.013671875,0.1640625,[0. 0. 0. 0. 0. 0. 0. 0. 0.],-2.18359375,0.23046875,9.54296875,[0. 0. 0. 0. 0. 0. 0. 0. 0.]
1742666897710825540,1742666897,691015244,imu_link,-0.01605224609375,0.09759521484375,0.01568603515625,0.9949951171875,[0. 0. 0. 0. 0. 0. 0. 0. 0.],-0.03515625,0.013671875,0.064453125,[0. 0. 0. 0. 0. 0. 0. 0. 0.],-2.26171875,-0.078125,9.58203125,[0. 0. 0. 0. 0. 0. 0. 0. 0.]
1742666897716739244,1742666897,713389559,imu_link,-0.01605224609375,0.09759521484375,0.01568603515625,0.9949951171875,[0. 0. 0. 0. 0. 0. 0. 0. 0.],-0.03515625,0.013671875,0.064453125,[0. 0. 0. 0. 0. 0. 0. 0. 0.],-2.26171875,-0.078125,9.58203125,[0. 0. 0. 0. 0. 0. 0. 0. 0.]
1742666897742197392,1742666897,731001762,imu_link,-0.01605224609375,0.09759521484375,0.01568603515625,0.9949951171875,[0. 0. 0. 0. 0. 0. 0. 0. 0.],-0.005859375,0.00390625,0.0703125,[0. 0. 0. 0. 0. 0. 0. 0. 0.],-2.18359375,-0.3046875,9.50390625,[0. 0. 0. 0. 0. 0. 0. 0. 0.]
1742666897765360299,1742666897,751069466,imu_link,-0.01654052734375,0.0972900390625,0.01727294921875,0.9949951171875,[0. 0. 0. 0. 0. 0. 0. 0. 0.],-0.005859375,0.00390625,0.0703125,[0. 0. 0. 0. 0. 0. 0. 0. 0.],-2.296875,-0.11328125,9.54296875,[0. 0. 0. 0. 0. 0. 0. 0. 0.]
1742666897774577392,1742666897,771077947,imu_link,-0.01654052734375,0.0972900390625,0.01727294921875,0.9949951171875,[0. 0. 0. 0. 0. 0. 0. 0. 0.],-0.005859375,0.00390625,0.0703125,[0. 0. 0. 0. 0. 0. 0. 0. 0.],-2.296875,-0.11328125,9.54296875,[0. 0. 0. 0. 0. 0. 0. 0. 0.]
1742666897812072910,1742666897,791061207,imu_link,-0.0166015625,0.09698486328125,0.01934814453125,0.99493408203125,[0. 0. 0. 0. 0. 0. 0. 0. 0.],0.015625,0.00390625,0.083984375,[0. 0. 0. 0. 0. 0. 0. 0. 0.],-2.453125,-0.0390625,9.5390625,[0. 0. 0. 0. 0. 0. 0. 0. 0.]
1742666897816950633,1742666897,814836336,imu_link,-0.0166015625,0.09698486328125,0.01934814453125,0.99493408203125,[0. 0. 0. 0. 0. 0. 0. 0. 0.],0.015625,0.00390625,0.083984375,[0. 0. 0. 0. 0. 0. 0. 0. 0.],-2.453125,-0.0390625,9.5390625,[0. 0. 0. 0. 0. 0. 0. 0. 0.]
1742666897843239133,1742666897,831022799,imu_link,-0.0166015625,0.09698486328125,0.01934814453125,0.99493408203125,[0. 0. 0. 0. 0. 0. 0. 0. 0.],0.01171875,0.00390625,0.056640625,[0. 0. 0. 0. 0. 0. 0. 0. 0.],-2.48828125,0.0,9.5390625,[0. 0. 0. 0. 0. 0. 0. 0. 0.]
1742666897865231836,1742666897,851082688,imu_link,-0.01666259765625,0.09674072265625,0.02081298828125,0.99493408203125,[0. 0. 0. 0. 0. 0. 0. 0. 0.],0.01171875,0.00390625,0.056640625,[0. 0. 0. 0. 0. 0. 0. 0. 0.],-2.4140625,-0.11328125,9.578125,[0. 0. 0. 0. 0. 0. 0. 0. 0.]
1742666897874324725,1742666897,870974170,imu_link,-0.01666259765625,0.09674072265625,0.02081298828125,0.99493408203125,[0. 0. 0. 0. 0. 0. 0. 0. 0.],0.01171875,0.00390625,0.056640625,[0. 0. 0. 0. 0. 0. 0. 0. 0.],-2.4140625,-0.11328125,9.578125,[0. 0. 0. 0. 0. 0. 0. 0. 0.]
1742666897912109466,1742666897,891067133,imu_link,-0.01678466796875,0.096435546875,0.02191162109375,0.99493408203125,[0. 0. 0. 0. 0. 0. 0. 0. 0.],0.0,0.00390625,0.04296875,[0. 0. 0. 0. 0. 0. 0. 0. 0.],-2.22265625,-0.34375,9.54296875,[0. 0. 0. 0. 0. 0. 0. 0. 0.]
1742666897922895225,1742666897,919433651,imu_link,-0.01678466796875,0.096435546875,0.02191162109375,0.99493408203125,[0. 0. 0. 0. 0. 0. 0. 0. 0.],0.0,0.00390625,0.04296875,[0. 0. 0. 0. 0. 0. 0. 0. 0.],-2.18359375,-0.34375,9.5,[0. 0. 0. 0. 0. 0. 0. 0. 0.]
1742666897937506799,1742666897,930977540,imu_link,-0.01678466796875,0.096435546875,0.02191162109375,0.99493408203125,[0. 0. 0. 0. 0. 0. 0. 0. 0.],0.0078125,0.0,0.03515625,[0. 0. 0. 0. 0. 0. 0. 0. 0.],-2.18359375,-0.34375,9.5,[0. 0. 0. 0. 0. 0. 0. 0. 0.]
1742666897965398744,1742666897,951076836,imu_link,-0.01690673828125,0.09613037109375,0.02276611328125,0.9949951171875,[0. 0. 0. 0. 0. 0. 0. 0. 0.],0.0078125,0.0,0.03515625,[0. 0. 0. 0. 0. 0. 0. 0. 0.],-2.03125,-0.4609375,9.65234375,[0. 0. 0. 0. 0. 0. 0. 0. 0.]
1742666897974346133,1742666897,970971836,imu_link,-0.01690673828125,0.09613037109375,0.02276611328125,0.9949951171875,[0. 0. 0. 0. 0. 0. 0. 0. 0.],0.0078125,0.0,0.03515625,[0. 0. 0. 0. 0. 0. 0. 0. 0.],-2.03125,-0.4609375,9.65234375,[0. 0. 0. 0. 0. 0. 0. 0. 0.]
1742666898016965910,1742666897,991065966,imu_link,-0.016845703125,0.09588623046875,0.02447509765625,0.99493408203125,[0. 0. 0. 0. 0. 0. 0. 0. 0.],0.0078125,0.005859375,0.076171875,[0. 0. 0. 0. 0. 0. 0. 0. 0.],-1.68359375,-0.3828125,9.65234375,[0. 0. 0. 0. 0. 0. 0. 0. 0.]
1742666898021806447,1742666898,18696392,imu_link,-0.016845703125,0.09588623046875,0.02447509765625,0.99493408203125,[0. 0. 0. 0. 0. 0. 0. 0. 0.],0.0078125,0.005859375,0.076171875,[0. 0. 0. 0. 0. 0. 0. 0. 0.],-1.68359375,-0.3828125,9.65234375,[0. 0. 0. 0. 0. 0. 0. 0. 0.]
1742666898037549132,1742666898,31027836,imu_link,-0.016845703125,0.09588623046875,0.02447509765625,0.99493408203125,[0. 0. 0. 0. 0. 0. 0. 0. 0.],-0.005859375,0.0078125,0.078125,[0. 0. 0. 0. 0. 0. 0. 0. 0.],-1.68359375,-0.3828125,9.65234375,[0. 0. 0. 0. 0. 0. 0. 0. 0.]
1742666898065207466,1742666898,51063207,imu_link,-0.0169677734375,0.09564208984375,0.02642822265625,0.99493408203125,[0. 0. 0. 0. 0. 0. 0. 0. 0.],-0.005859375,0.0078125,0.078125,[0. 0. 0. 0. 0. 0. 0. 0. 0.],-1.5703125,-0.49609375,9.609375,[0. 0. 0. 0. 0. 0. 0. 0. 0.]
1742666898077000521,1742666898,70956466,imu_link,-0.0169677734375,0.09564208984375,0.02642822265625,0.99493408203125,[0. 0. 0. 0. 0. 0. 0. 0. 0.],-0.005859375,0.0078125,0.078125,[0. 0. 0. 0. 0. 0. 0. 0. 0.],-1.4921875,-0.4609375,9.578125,[0. 0. 0. 0. 0. 0. 0. 0. 0.]
1742666898094500003,1742666898,90982058,imu_link,-0.0169677734375,0.09564208984375,0.02642822265625,0.99493408203125,[0. 0. 0. 0. 0. 0. 0. 0. 0.],-0.00390625,0.005859375,0.08984375,[0. 0. 0. 0. 0. 0. 0. 0. 0.],-1.4921875,-0.4609375,9.578125,[0. 0. 0. 0. 0. 0. 0. 0. 0.]
1742666898125187799,1742666898,111127299,imu_link,-0.01708984375,0.095458984375,0.02850341796875,0.994873046875,[0. 0. 0. 0. 0. 0. 0. 0. 0.],-0.00390625,0.005859375,0.08984375,[0. 0. 0. 0. 0. 0. 0. 0. 0.],-1.4921875,-0.4609375,9.578125,[0. 0. 0. 0. 0. 0. 0. 0. 0.]
1742666898141324299,1742666898,131083429,imu_link,-0.01708984375,0.095458984375,0.02850341796875,0.994873046875,[0. 0. 0. 0. 0. 0. 0. 0. 0.],-0.005859375,0.0,0.115234375,[0. 0. 0. 0. 0. 0. 0. 0. 0.],-1.609375,-0.3828125,9.578125,[0. 0. 0. 0. 0. 0. 0. 0. 0.]
1742666898164231299,1742666898,151065132,imu_link,-0.0172119140625,0.09527587890625,0.03125,0.99481201171875,[0. 0. 0. 0. 0. 0. 0. 0. 0.],-0.005859375,0.0,0.115234375,[0. 0. 0. 0. 0. 0. 0. 0. 0.],-1.609375,-0.3828125,9.578125,[0. 0. 0. 0. 0. 0. 0. 0. 0.]
1742666898181589169,1742666898,171016595,imu_link,-0.0172119140625,0.09527587890625,0.03125,0.99481201171875,[0. 0. 0. 0. 0. 0. 0. 0. 0.],-0.005859375,0.0,0.115234375,[0. 0. 0. 0. 0. 0. 0. 0. 0.],-1.83984375,-0.19140625,9.65234375,[0. 0. 0. 0. 0. 0. 0. 0. 0.]
1742666898194279318,1742666898,190963132,imu_link,-0.0172119140625,0.09527587890625,0.03125,0.99481201171875,[0. 0. 0. 0. 0. 0. 0. 0. 0.],-0.01171875,0.00390625,0.08984375,[0. 0. 0. 0. 0. 0. 0. 0. 0.],-1.83984375,-0.19140625,9.65234375,[0. 0. 0. 0. 0. 0. 0. 0. 0.]
1742666898225111929,1742666898,211109799,imu_link,-0.01751708984375,0.09515380859375,0.03363037109375,0.9947509765625,[0. 0. 0. 0. 0. 0. 0. 0. 0.],-0.01171875,0.00390625,0.08984375,[0. 0. 0. 0. 0. 0. 0. 0. 0.],-1.87890625,-0.15234375,9.50390625,[0. 0. 0. 0. 0. 0. 0. 0. 0.]
1742666898242848910,1742666898,230951688,imu_link,-0.01751708984375,0.09515380859375,0.03363037109375,0.9947509765625,[0. 0. 0. 0. 0. 0. 0. 0. 0.],-0.0078125,0.0,0.091796875,[0. 0. 0. 0. 0. 0. 0. 0. 0.],-1.9921875,-0.23046875,9.54296875,[0. 0. 0. 0. 0. 0. 0. 0. 0.]
1742666898266739818,1742666898,251058558,imu_link,-0.01776123046875,0.09490966796875,0.035888671875,0.99468994140625,[0. 0. 0. 0. 0. 0. 0. 0. 0.],-0.0078125,0.0,0.091796875,[0. 0. 0. 0. 0. 0. 0. 0. 0.],-2.14453125,-0.26953125,9.578125,[0. 0. 0. 0. 0. 0. 0. 0. 0.]
1742666898274537873,1742666898,271012503,imu_link,-0.01776123046875,0.09490966796875,0.035888671875,0.99468994140625,[0. 0. 0. 0. 0. 0. 0. 0. 0.],-0.0078125,0.0,0.091796875,[0. 0. 0. 0. 0. 0. 0. 0. 0.],-2.14453125,-0.26953125,9.578125,[0. 0. 0. 0. 0. 0. 0. 0. 0.]
1742666898311660836,1742666898,291000021,imu_link,-0.017822265625,0.0947265625,0.0382080078125,0.99462890625,[0. 0. 0. 0. 0. 0. 0. 0. 0.],-0.009765625,0.001953125,0.09765625,[0. 0. 0. 0. 0. 0. 0. 0. 0.],-2.26171875,-0.26953125,9.58203125,[0. 0. 0. 0. 0. 0. 0. 0. 0.]
1742666898316130429,1742666898,314021410,imu_link,-0.017822265625,0.0947265625,0.0382080078125,0.99462890625,[0. 0. 0. 0. 0. 0. 0. 0. 0.],-0.009765625,0.001953125,0.09765625,[0. 0. 0. 0. 0. 0. 0. 0. 0.],-2.26171875,-0.26953125,9.58203125,[0. 0. 0. 0. 0. 0. 0. 0. 0.]
1742666898343031873,1742666898,331009725,imu_link,-0.017822265625,0.0947265625,0.0382080078125,0.99462890625,[0. 0. 0. 0. 0. 0. 0. 0. 0.],-0.005859375,0.00390625,0.087890625,[0. 0. 0. 0. 0. 0. 0. 0. 0.],-2.22265625,-0.3046875,9.578125,[0. 0. 0. 0. 0. 0. 0. 0. 0.]
1742666898365649984,1742666898,351105021,imu_link,-0.017822265625,0.0946044921875,0.0404052734375,0.9945068359375,[0. 0. 0. 0. 0. 0. 0. 0. 0.],-0.005859375,0.00390625,0.087890625,[0. 0. 0. 0. 0. 0. 0. 0. 0.],-2.14453125,-0.34375,9.578125,[0. 0. 0. 0. 0. 0. 0. 0. 0.]
1742666898374309169,1742666898,370974077,imu_link,-0.017822265625,0.0946044921875,0.0404052734375,0.9945068359375,[0. 0. 0. 0. 0. 0. 0. 0. 0.],-0.005859375,0.00390625,0.087890625,[0. 0. 0. 0. 0. 0. 0. 0. 0.],-2.14453125,-0.34375,9.578125,[0. 0. 0. 0. 0. 0. 0. 0. 0.]
1742666898409543540,1742666898,391048206,imu_link,-0.017822265625,0.09442138671875,0.04278564453125,0.99444580078125,[0. 0. 0. 0. 0. 0. 0. 0. 0.],0.0,0.001953125,0.095703125,[0. 0. 0. 0. 0. 0. 0. 0. 0.],-1.9921875,-0.34375,9.578125,[0. 0. 0. 0. 0. 0. 0. 0. 0.]
1742666898415564540,1742666898,412142632,imu_link,-0.017822265625,0.09442138671875,0.04278564453125,0.99444580078125,[0. 0. 0. 0. 0. 0. 0. 0. 0.],0.0,0.001953125,0.095703125,[0. 0. 0. 0. 0. 0. 0. 0. 0.],-1.9921875,-0.34375,9.578125,[0. 0. 0. 0. 0. 0. 0. 0. 0.]
1742666898442543299,1742666898,431022632,imu_link,-0.017822265625,0.09442138671875,0.04278564453125,0.99444580078125,[0. 0. 0. 0. 0. 0. 0. 0. 0.],0.0,0.0,0.103515625,[0. 0. 0. 0. 0. 0. 0. 0. 0.],-1.953125,-0.421875,9.54296875,[0. 0. 0. 0. 0. 0. 0. 0. 0.]
1742666898465097929,1742666898,451096632,imu_link,-0.01788330078125,0.09417724609375,0.04534912109375,0.994384765625,[0. 0. 0. 0. 0. 0. 0. 0. 0.],0.0,0.0,0.103515625,[0. 0. 0. 0. 0. 0. 0. 0. 0.],-1.9140625,-0.3828125,9.61328125,[0. 0. 0. 0. 0. 0. 0. 0. 0.]
1742666898474317706,1742666898,470974521,imu_link,-0.01788330078125,0.09417724609375,0.04534912109375,0.994384765625,[0. 0. 0. 0. 0. 0. 0. 0. 0.],0.0,0.0,0.103515625,[0. 0. 0. 0. 0. 0. 0. 0. 0.],-1.9140625,-0.3828125,9.61328125,[0. 0. 0. 0. 0. 0. 0. 0. 0.]
1742666898511475466,1742666898,491069651,imu_link,-0.01788330078125,0.09405517578125,0.04833984375,0.9942626953125,[0. 0. 0. 0. 0. 0. 0. 0. 0.],-0.00390625,0.00390625,0.123046875,[0. 0. 0. 0. 0. 0. 0. 0. 0.],-1.83984375,-0.421875,9.65234375,[0. 0. 0. 0. 0. 0. 0. 0. 0.]
1742666898520545077,1742666898,513743262,imu_link,-0.01788330078125,0.09405517578125,0.04833984375,0.9942626953125,[0. 0. 0. 0. 0. 0. 0. 0. 0.],-0.00390625,0.00390625,0.123046875,[0. 0. 0. 0. 0. 0. 0. 0. 0.],-1.80078125,-0.3828125,9.578125,[0. 0. 0. 0. 0. 0. 0. 0. 0.]
1742666898537791669,1742666898,531042095,imu_link,-0.01788330078125,0.09405517578125,0.04833984375,0.9942626953125,[0. 0. 0. 0. 0. 0. 0. 0. 0.],-0.015625,0.00390625,0.1328125,[0. 0. 0. 0. 0. 0. 0. 0. 0.],-1.80078125,-0.3828125,9.578125,[0. 0. 0. 0. 0. 0. 0. 0. 0.]
1742666898565113484,1742666898,551051706,imu_link,-0.01806640625,0.09393310546875,0.0516357421875,0.99407958984375,[0. 0. 0. 0. 0. 0. 0. 0. 0.],-0.015625,0.00390625,0.1328125,[0. 0. 0. 0. 0. 0. 0. 0. 0.],-1.83984375,-0.4609375,9.54296875,[0. 0. 0. 0. 0. 0. 0. 0. 0.]
1742666898574312299,1742666898,570955262,imu_link,-0.01806640625,0.09393310546875,0.0516357421875,0.99407958984375,[0. 0. 0. 0. 0. 0. 0. 0. 0.],-0.015625,0.00390625,0.1328125,[0. 0. 0. 0. 0. 0. 0. 0. 0.],-1.83984375,-0.4609375,9.54296875,[0. 0. 0. 0. 0. 0. 0. 0. 0.]
1742666898615259040,1742666898,591102558,imu_link,-0.01812744140625,0.0938720703125,0.05517578125,0.993896484375,[0. 0. 0. 0. 0. 0. 0. 0. 0.],-0.017578125,0.005859375,0.14453125,[0. 0. 0. 0. 0. 0. 0. 0. 0.],-1.83984375,-0.421875,9.61328125,[0. 0. 0. 0. 0. 0. 0. 0. 0.]
1742666898619210799,1742666898,616834299,imu_link,-0.01812744140625,0.0938720703125,0.05517578125,0.993896484375,[0. 0. 0. 0. 0. 0. 0. 0. 0.],-0.017578125,0.005859375,0.14453125,[0. 0. 0. 0. 0. 0. 0. 0. 0.],-1.9140625,-0.3828125,9.5390625,[0. 0. 0. 0. 0. 0. 0. 0. 0.]
1742666898638046391,1742666898,631099502,imu_link,-0.01812744140625,0.0938720703125,0.05517578125,0.993896484375,[0. 0. 0. 0. 0. 0. 0. 0. 0.],-0.01171875,0.001953125,0.162109375,[0. 0. 0. 0. 0. 0. 0. 0. 0.],-1.9140625,-0.3828125,9.5390625,[0. 0. 0. 0. 0. 0. 0. 0. 0.]
1742666898664025188,1742666898,650994780,imu_link,-0.01873779296875,0.09466552734375,0.05914306640625,0.99359130859375,[0. 0. 0. 0. 0. 0. 0. 0. 0.],-0.01171875,0.001953125,0.162109375,[0. 0. 0. 0. 0. 0. 0. 0. 0.],-1.87890625,-0.421875,9.5390625,[0. 0. 0. 0. 0. 0. 0. 0. 0.]
1742666898682137577,1742666898,671001577,imu_link,-0.01873779296875,0.09466552734375,0.05914306640625,0.99359130859375,[0. 0. 0. 0. 0. 0. 0. 0. 0.],-0.01171875,0.001953125,0.162109375,[0. 0. 0. 0. 0. 0. 0. 0. 0.],-1.953125,-0.34375,9.65234375,[0. 0. 0. 0. 0. 0. 0. 0. 0.]
1742666898694571595,1742666898,691075465,imu_link,-0.01873779296875,0.09466552734375,0.05914306640625,0.99359130859375,[0. 0. 0. 0. 0. 0. 0. 0. 0.],-0.005859375,0.005859375,0.171875,[0. 0. 0. 0. 0. 0. 0. 0. 0.],-1.953125,-0.34375,9.65234375,[0. 0. 0. 0. 0. 0. 0. 0. 0.]
1742666898724713039,1742666898,711117706,imu_link,-0.01904296875,0.09552001953125,0.06329345703125,0.99322509765625,[0. 0. 0. 0. 0. 0. 0. 0. 0.],-0.005859375,0.005859375,0.171875,[0. 0. 0. 0. 0. 0. 0. 0. 0.],-1.9921875,-0.3046875,9.50390625,[0. 0. 0. 0. 0. 0. 0. 0. 0.]
1742666898742486669,1742666898,731015039,imu_link,-0.01904296875,0.09552001953125,0.06329345703125,0.99322509765625,[0. 0. 0. 0. 0. 0. 0. 0. 0.],0.0,0.0078125,0.1640625,[0. 0. 0. 0. 0. 0. 0. 0. 0.],-2.0703125,-0.26953125,9.6484375,[0. 0. 0. 0. 0. 0. 0. 0. 0.]
1742666898764027188,1742666898,751017502,imu_link,-0.0191650390625,0.0960693359375,0.06744384765625,0.992919921875,[0. 0. 0. 0. 0. 0. 0. 0. 0.],0.0,0.0078125,0.1640625,[0. 0. 0. 0. 0. 0. 0. 0. 0.],-2.0703125,-0.26953125,9.6484375,[0. 0. 0. 0. 0. 0. 0. 0. 0.]
1742666898781935539,1742666898,771022336,imu_link,-0.0191650390625,0.0960693359375,0.06744384765625,0.992919921875,[0. 0. 0. 0. 0. 0. 0. 0. 0.],0.0,0.0078125,0.1640625,[0. 0. 0. 0. 0. 0. 0. 0. 0.],-2.0703125,-0.19140625,9.4609375,[0. 0. 0. 0. 0. 0. 0. 0. 0.]
1742666898794567132,1742666898,791105484,imu_link,-0.0191650390625,0.0960693359375,0.06744384765625,0.992919921875,[0. 0. 0. 0. 0. 0. 0. 0. 0.],-0.005859375,0.0078125,0.166015625,[0. 0. 0. 0. 0. 0. 0. 0. 0.],-2.0703125,-0.19140625,9.4609375,[0. 0. 0. 0. 0. 0. 0. 0. 0.]
1742666898824677132,1742666898,811174521,imu_link,-0.019287109375,0.09661865234375,0.071533203125,0.9925537109375,[0. 0. 0. 0. 0. 0. 0. 0. 0.],-0.005859375,0.0078125,0.166015625,[0. 0. 0. 0. 0. 0. 0. 0. 0.],-2.10546875,-0.26953125,9.609375,[0. 0. 0. 0. 0. 0. 0. 0. 0.]
1742666898842590280,1742666898,831005076,imu_link,-0.019287109375,0.09661865234375,0.071533203125,0.9925537109375,[0. 0. 0. 0. 0. 0. 0. 0. 0.],-0.0078125,0.005859375,0.150390625,[0. 0. 0. 0. 0. 0. 0. 0. 0.],-2.10546875,-0.26953125,9.54296875,[0. 0. 0. 0. 0. 0. 0. 0. 0.]
1742666898867406391,1742666898,851110558,imu_link,-0.01934814453125,0.09710693359375,0.07537841796875,0.99224853515625,[0. 0. 0. 0. 0. 0. 0. 0. 0.],-0.0078125,0.005859375,0.150390625,[0. 0. 0. 0. 0. 0. 0. 0. 0.],-1.9921875,-0.34375,9.61328125,[0. 0. 0. 0. 0. 0. 0. 0. 0.]
1742666898874388002,1742666898,870998058,imu_link,-0.01934814453125,0.09710693359375,0.07537841796875,0.99224853515625,[0. 0. 0. 0. 0. 0. 0. 0. 0.],-0.0078125,0.005859375,0.150390625,[0. 0. 0. 0. 0. 0. 0. 0. 0.],-1.9921875,-0.34375,9.61328125,[0. 0. 0. 0. 0. 0. 0. 0. 0.]
1742666898909827743,1742666898,891123558,imu_link,-0.01934814453125,0.09759521484375,0.07928466796875,0.99188232421875,[0. 0. 0. 0. 0. 0. 0. 0. 0.],-0.005859375,0.00390625,0.16015625,[0. 0. 0. 0. 0. 0. 0. 0. 0.],-1.9140625,-0.34375,9.578125,[0. 0. 0. 0. 0. 0. 0. 0. 0.]
1742666898914833743,1742666898,912550984,imu_link,-0.01934814453125,0.09759521484375,0.07928466796875,0.99188232421875,[0. 0. 0. 0. 0. 0. 0. 0. 0.],-0.005859375,0.00390625,0.16015625,[0. 0. 0. 0. 0. 0. 0. 0. 0.],-1.9140625,-0.34375,9.578125,[0. 0. 0. 0. 0. 0. 0. 0. 0.]
1742666898942880336,1742666898,931087799,imu_link,-0.01934814453125,0.09759521484375,0.07928466796875,0.99188232421875,[0. 0. 0. 0. 0. 0. 0. 0. 0.],-0.01171875,0.001953125,0.16015625,[0. 0. 0. 0. 0. 0. 0. 0. 0.],-1.9140625,-0.34375,9.578125,[0. 0. 0. 0. 0. 0. 0. 0. 0.]
1742666898966915539,1742666898,951275928,imu_link,-0.01934814453125,0.0980224609375,0.08331298828125,0.99151611328125,[0. 0. 0. 0. 0. 0. 0. 0. 0.],-0.01171875,0.001953125,0.16015625,[0. 0. 0. 0. 0. 0. 0. 0. 0.],-1.9140625,-0.34375,9.5390625,[0. 0. 0. 0. 0. 0. 0. 0. 0.]
1742666898974519280,1742666898,971037891,imu_link,-0.01934814453125,0.0980224609375,0.08331298828125,0.99151611328125,[0. 0. 0. 0. 0. 0. 0. 0. 0.],-0.01171875,0.001953125,0.16015625,[0. 0. 0. 0. 0. 0. 0. 0. 0.],-1.9140625,-0.34375,9.5390625,[0. 0. 0. 0. 0. 0. 0. 0. 0.]
1742666899009462095,1742666898,991152836,imu_link,-0.01922607421875,0.0985107421875,0.08740234375,0.9910888671875,[0. 0. 0. 0. 0. 0. 0. 0. 0.],-0.00390625,0.005859375,0.166015625,[0. 0. 0. 0. 0. 0. 0. 0. 0.],-1.953125,-0.3046875,9.609375,[0. 0. 0. 0. 0. 0. 0. 0. 0.]
1742666899014422762,1742666899,12227169,imu_link,-0.01922607421875,0.0985107421875,0.08740234375,0.9910888671875,[0. 0. 0. 0. 0. 0. 0. 0. 0.],-0.00390625,0.005859375,0.166015625,[0. 0. 0. 0. 0. 0. 0. 0. 0.],-1.953125,-0.3046875,9.609375,[0. 0. 0. 0. 0. 0. 0. 0. 0.]
1742666899042125743,1742666899,31130465,imu_link,-0.01922607421875,0.0985107421875,0.08740234375,0.9910888671875,[0. 0. 0. 0. 0. 0. 0. 0. 0.],0.0,0.00390625,0.17578125,[0. 0. 0. 0. 0. 0. 0. 0. 0.],-1.87890625,-0.34375,9.54296875,[0. 0. 0. 0. 0. 0. 0. 0. 0.]
1742666899064907521,1742666899,51098669,imu_link,-0.0191650390625,0.09893798828125,0.0916748046875,0.99066162109375,[0. 0. 0. 0. 0. 0. 0. 0. 0.],0.0,0.00390625,0.17578125,[0. 0. 0. 0. 0. 0. 0. 0. 0.],-1.87890625,-0.3046875,9.578125,[0. 0. 0. 0. 0. 0. 0. 0. 0.]
1742666899073847595,1742666899,71022428,imu_link,-0.0191650390625,0.09893798828125,0.0916748046875,0.99066162109375,[0. 0. 0. 0. 0. 0. 0. 0. 0.],0.0,0.00390625,0.17578125,[0. 0. 0. 0. 0. 0. 0. 0. 0.],-1.87890625,-0.3046875,9.578125,[0. 0. 0. 0. 0. 0. 0. 0. 0.]
1742666899111693132,1742666899,91162132,imu_link,-0.01910400390625,0.0992431640625,0.095947265625,0.990234375,[0. 0. 0. 0. 0. 0. 0. 0. 0.],-0.005859375,0.00390625,0.17578125,[0. 0. 0. 0. 0. 0. 0. 0. 0.],-1.9140625,-0.34375,9.5390625,[0. 0. 0. 0. 0. 0. 0. 0. 0.]
1742666899119901706,1742666899,113599817,imu_link,-0.01910400390625,0.0992431640625,0.095947265625,0.990234375,[0. 0. 0. 0. 0. 0. 0. 0. 0.],-0.005859375,0.00390625,0.17578125,[0. 0. 0. 0. 0. 0. 0. 0. 0.],-2.03125,-0.26953125,9.61328125,[0. 0. 0. 0. 0. 0. 0. 0. 0.]
1742666899138120947,1742666899,131159817,imu_link,-0.01910400390625,0.0992431640625,0.095947265625,0.990234375,[0. 0. 0. 0. 0. 0. 0. 0. 0.],-0.0078125,0.009765625,0.173828125,[0. 0. 0. 0. 0. 0. 0. 0. 0.],-2.03125,-0.26953125,9.61328125,[0. 0. 0. 0. 0. 0. 0. 0. 0.]
1742666899164693761,1742666899,151130613,imu_link,-0.01910400390625,0.09954833984375,0.10028076171875,0.98980712890625,[0. 0. 0. 0. 0. 0. 0. 0. 0.],-0.0078125,0.009765625,0.173828125,[0. 0. 0. 0. 0. 0. 0. 0. 0.],-2.14453125,-0.23046875,9.54296875,[0. 0. 0. 0. 0. 0. 0. 0. 0.]
1742666899173956132,1742666899,171082169,imu_link,-0.01910400390625,0.09954833984375,0.10028076171875,0.98980712890625,[0. 0. 0. 0. 0. 0. 0. 0. 0.],-0.0078125,0.009765625,0.173828125,[0. 0. 0. 0. 0. 0. 0. 0. 0.],-2.14453125,-0.23046875,9.54296875,[0. 0. 0. 0. 0. 0. 0. 0. 0.]
1742666899208552150,1742666899,191127261,imu_link,-0.01910400390625,0.09979248046875,0.10443115234375,0.98931884765625,[0. 0. 0. 0. 0. 0. 0. 0. 0.],-0.001953125,0.005859375,0.173828125,[0. 0. 0. 0. 0. 0. 0. 0. 0.],-2.14453125,-0.19140625,9.58203125,[0. 0. 0. 0. 0. 0. 0. 0. 0.]
1742666899217859002,1742666899,215464298,imu_link,-0.01910400390625,0.09979248046875,0.10443115234375,0.98931884765625,[0. 0. 0. 0. 0. 0. 0. 0. 0.],-0.001953125,0.005859375,0.173828125,[0. 0. 0. 0. 0. 0. 0. 0. 0.],-2.0703125,-0.23046875,9.5390625,[0. 0. 0. 0. 0. 0. 0. 0. 0.]
1742666899238146076,1742666899,231094447,imu_link,-0.01910400390625,0.09979248046875,0.10443115234375,0.98931884765625,[0. 0. 0. 0. 0. 0. 0. 0. 0.],-0.005859375,0.001953125,0.1640625,[0. 0. 0. 0. 0. 0. 0. 0. 0.],-2.0703125,-0.23046875,9.5390625,[0. 0. 0. 0. 0. 0. 0. 0. 0.]
1742666899264129261,1742666899,251016317,imu_link,-0.0191650390625,0.10003662109375,0.1085205078125,0.9888916015625,[0. 0. 0. 0. 0. 0. 0. 0. 0.],-0.005859375,0.001953125,0.1640625,[0. 0. 0. 0. 0. 0. 0. 0. 0.],-2.03125,-0.26953125,9.578125,[0. 0. 0. 0. 0. 0. 0. 0. 0.]
1742666899283248724,1742666899,271088947,imu_link,-0.0191650390625,0.10003662109375,0.1085205078125,0.9888916015625,[0. 0. 0. 0. 0. 0. 0. 0. 0.],-0.01171875,0.005859375,0.158203125,[0. 0. 0. 0. 0. 0. 0. 0. 0.],-1.9921875,-0.23046875,9.609375,[0. 0. 0. 0. 0. 0. 0. 0. 0.]
1742666899294015002,1742666899,291122317,imu_link,-0.0191650390625,0.10003662109375,0.1085205078125,0.9888916015625,[0. 0. 0. 0. 0. 0. 0. 0. 0.],-0.01171875,0.005859375,0.158203125,[0. 0. 0. 0. 0. 0. 0. 0. 0.],-1.9921875,-0.23046875,9.609375,[0. 0. 0. 0. 0. 0. 0. 0. 0.]
1742666899324166372,1742666899,311122632,imu_link,-0.01934814453125,0.10028076171875,0.1124267578125,0.9884033203125,[0. 0. 0. 0. 0. 0. 0. 0. 0.],-0.01171875,0.005859375,0.158203125,[0. 0. 0. 0. 0. 0. 0. 0. 0.],-1.953125,-0.23046875,9.58203125,[0. 0. 0. 0. 0. 0. 0. 0. 0.]
1742666899337098447,1742666899,331017447,imu_link,-0.01934814453125,0.10028076171875,0.1124267578125,0.9884033203125,[0. 0. 0. 0. 0. 0. 0. 0. 0.],-0.013671875,0.005859375,0.16015625,[0. 0. 0. 0. 0. 0. 0. 0. 0.],-1.953125,-0.23046875,9.58203125,[0. 0. 0. 0. 0. 0. 0. 0. 0.]
1742666899363786613,1742666899,351078835,imu_link,-0.01953125,0.10052490234375,0.116455078125,0.9879150390625,[0. 0. 0. 0. 0. 0. 0. 0. 0.],-0.013671875,0.005859375,0.16015625,[0. 0. 0. 0. 0. 0. 0. 0. 0.],-1.87890625,-0.34375,9.58203125,[0. 0. 0. 0. 0. 0. 0. 0. 0.]
1742666899382216206,1742666899,371071743,imu_link,-0.01953125,0.10052490234375,0.116455078125,0.9879150390625,[0. 0. 0. 0. 0. 0. 0. 0. 0.],-0.009765625,0.00390625,0.171875,[0. 0. 0. 0. 0. 0. 0. 0. 0.],-1.83984375,-0.421875,9.5390625,[0. 0. 0. 0. 0. 0. 0. 0. 0.]
1742666899393871946,1742666899,391039280,imu_link,-0.01953125,0.10052490234375,0.116455078125,0.9879150390625,[0. 0. 0. 0. 0. 0. 0. 0. 0.],-0.009765625,0.00390625,0.171875,[0. 0. 0. 0. 0. 0. 0. 0. 0.],-1.83984375,-0.421875,9.5390625,[0. 0. 0. 0. 0. 0. 0. 0. 0.]
1742666899423928798,1742666899,411037817,imu_link,-0.01953125,0.1007080078125,0.12054443359375,0.98736572265625,[0. 0. 0. 0. 0. 0. 0. 0. 0.],-0.009765625,0.00390625,0.171875,[0. 0. 0. 0. 0. 0. 0. 0. 0.],-1.953125,-0.3046875,9.609375,[0. 0. 0. 0. 0. 0. 0. 0. 0.]
1742666899443035706,1742666899,431116521,imu_link,-0.01953125,0.1007080078125,0.12054443359375,0.98736572265625,[0. 0. 0. 0. 0. 0. 0. 0. 0.],-0.005859375,0.0078125,0.1640625,[0. 0. 0. 0. 0. 0. 0. 0. 0.],-2.03125,-0.26953125,9.578125,[0. 0. 0. 0. 0. 0. 0. 0. 0.]
1742666899466760483,1742666899,451097446,imu_link,-0.0196533203125,0.10089111328125,0.1246337890625,0.98687744140625,[0. 0. 0. 0. 0. 0. 0. 0. 0.],-0.005859375,0.0078125,0.1640625,[0. 0. 0. 0. 0. 0. 0. 0. 0.],-2.03125,-0.19140625,9.58203125,[0. 0. 0. 0. 0. 0. 0. 0. 0.]
1742666899473806706,1742666899,471019076,imu_link,-0.0196533203125,0.10089111328125,0.1246337890625,0.98687744140625,[0. 0. 0. 0. 0. 0. 0. 0. 0.],-0.005859375,0.0078125,0.1640625,[0. 0. 0. 0. 0. 0. 0. 0. 0.],-2.03125,-0.19140625,9.58203125,[0. 0. 0. 0. 0. 0. 0. 0. 0.]
1742666899509800039,1742666899,491128391,imu_link,-0.019775390625,0.10113525390625,0.12860107421875,0.986328125,[0. 0. 0. 0. 0. 0. 0. 0. 0.],-0.005859375,0.005859375,0.16015625,[0. 0. 0. 0. 0. 0. 0. 0. 0.],-2.0703125,-0.19140625,9.578125,[0. 0. 0. 0. 0. 0. 0. 0. 0.]
1742666899514322298,1742666899,512473187,imu_link,-0.019775390625,0.10113525390625,0.12860107421875,0.986328125,[0. 0. 0. 0. 0. 0. 0. 0. 0.],-0.005859375,0.005859375,0.16015625,[0. 0. 0. 0. 0. 0. 0. 0. 0.],-2.0703125,-0.19140625,9.578125,[0. 0. 0. 0. 0. 0. 0. 0. 0.]
1742666899542407372,1742666899,531124224,imu_link,-0.019775390625,0.10113525390625,0.12860107421875,0.986328125,[0. 0. 0. 0. 0. 0. 0. 0. 0.],-0.009765625,0.001953125,0.150390625,[0. 0. 0. 0. 0. 0. 0. 0. 0.],-2.10546875,-0.23046875,9.578125,[0. 0. 0. 0. 0. 0. 0. 0. 0.]
1742666899565602613,1742666899,551017261,imu_link,-0.0198974609375,0.10125732421875,0.13226318359375,0.98583984375,[0. 0. 0. 0. 0. 0. 0. 0. 0.],-0.009765625,0.001953125,0.150390625,[0. 0. 0. 0. 0. 0. 0. 0. 0.],-2.03125,-0.26953125,9.5390625,[0. 0. 0. 0. 0. 0. 0. 0. 0.]
1742666899574457983,1742666899,571024206,imu_link,-0.0198974609375,0.10125732421875,0.13226318359375,0.98583984375,[0. 0. 0. 0. 0. 0. 0. 0. 0.],-0.009765625,0.001953125,0.150390625,[0. 0. 0. 0. 0. 0. 0. 0. 0.],-2.03125,-0.26953125,9.5390625,[0. 0. 0. 0. 0. 0. 0. 0. 0.]
1742666899609851224,1742666899,591343187,imu_link,-0.02008056640625,0.10137939453125,0.13592529296875,0.98529052734375,[0. 0. 0. 0. 0. 0. 0. 0. 0.],-0.013671875,0.005859375,0.1484375,[0. 0. 0. 0. 0. 0. 0. 0. 0.],-2.03125,-0.3046875,9.609375,[0. 0. 0. 0. 0. 0. 0. 0. 0.]
1742666899614253817,1742666899,612474409,imu_link,-0.02008056640625,0.10137939453125,0.13592529296875,0.98529052734375,[0. 0. 0. 0. 0. 0. 0. 0. 0.],-0.013671875,0.005859375,0.1484375,[0. 0. 0. 0. 0. 0. 0. 0. 0.],-2.03125,-0.3046875,9.609375,[0. 0. 0. 0. 0. 0. 0. 0. 0.]
1742666899642722002,1742666899,631281020,imu_link,-0.02008056640625,0.10137939453125,0.13592529296875,0.98529052734375,[0. 0. 0. 0. 0. 0. 0. 0. 0.],-0.005859375,0.00390625,0.15234375,[0. 0. 0. 0. 0. 0. 0. 0. 0.],-2.03125,-0.3828125,9.578125,[0. 0. 0. 0. 0. 0. 0. 0. 0.]
1742666899663460206,1742666899,651058150,imu_link,-0.020263671875,0.10150146484375,0.13970947265625,0.98480224609375,[0. 0. 0. 0. 0. 0. 0. 0. 0.],-0.005859375,0.00390625,0.15234375,[0. 0. 0. 0. 0. 0. 0. 0. 0.],-1.9921875,-0.34375,9.578125,[0. 0. 0. 0. 0. 0. 0. 0. 0.]
1742666899673453261,1742666899,671072076,imu_link,-0.020263671875,0.10150146484375,0.13970947265625,0.98480224609375,[0. 0. 0. 0. 0. 0. 0. 0. 0.],-0.005859375,0.00390625,0.15234375,[0. 0. 0. 0. 0. 0. 0. 0. 0.],-1.9921875,-0.34375,9.578125,[0. 0. 0. 0. 0. 0. 0. 0. 0.]
1742666899708204409,1742666899,691117631,imu_link,-0.0205078125,0.1015625,0.1435546875,0.98419189453125,[0. 0. 0. 0. 0. 0. 0. 0. 0.],-0.009765625,0.001953125,0.158203125,[0. 0. 0. 0. 0. 0. 0. 0. 0.],-2.03125,-0.26953125,9.61328125,[0. 0. 0. 0. 0. 0. 0. 0. 0.]
1742666899713673057,1742666899,711166594,imu_link,-0.0205078125,0.1015625,0.1435546875,0.98419189453125,[0. 0. 0. 0. 0. 0. 0. 0. 0.],-0.009765625,0.001953125,0.158203125,[0. 0. 0. 0. 0. 0. 0. 0. 0.],-2.03125,-0.26953125,9.61328125,[0. 0. 0. 0. 0. 0. 0. 0. 0.]
1742666899743222039,1742666899,731133761,imu_link,-0.0205078125,0.1015625,0.1435546875,0.98419189453125,[0. 0. 0. 0. 0. 0. 0. 0. 0.],-0.005859375,0.00390625,0.16015625,[0. 0. 0. 0. 0. 0. 0. 0. 0.],-2.03125,-0.26953125,9.578125,[0. 0. 0. 0. 0. 0. 0. 0. 0.]
1742666899763659780,1742666899,751015539,imu_link,-0.020751953125,0.1016845703125,0.14739990234375,0.983642578125,[0. 0. 0. 0. 0. 0. 0. 0. 0.],-0.005859375,0.00390625,0.16015625,[0. 0. 0. 0. 0. 0. 0. 0. 0.],-1.953125,-0.34375,9.578125,[0. 0. 0. 0. 0. 0. 0. 0. 0.]
1742666899773880946,1742666899,771429557,imu_link,-0.020751953125,0.1016845703125,0.14739990234375,0.983642578125,[0. 0. 0. 0. 0. 0. 0. 0. 0.],-0.005859375,0.00390625,0.16015625,[0. 0. 0. 0. 0. 0. 0. 0. 0.],-1.953125,-0.34375,9.578125,[0. 0. 0. 0. 0. 0. 0. 0. 0.]
1742666899808473761,1742666899,791145465,imu_link,-0.0211181640625,0.10174560546875,0.1513671875,0.98297119140625,[0. 0. 0. 0. 0. 0. 0. 0. 0.],-0.013671875,0.00390625,0.162109375,[0. 0. 0. 0. 0. 0. 0. 0. 0.],-1.953125,-0.34375,9.5390625,[0. 0. 0. 0. 0. 0. 0. 0. 0.]
1742666899818573891,1742666899,815038668,imu_link,-0.0211181640625,0.10174560546875,0.1513671875,0.98297119140625,[0. 0. 0. 0. 0. 0. 0. 0. 0.],-0.013671875,0.00390625,0.162109375,[0. 0. 0. 0. 0. 0. 0. 0. 0.],-1.9921875,-0.26953125,9.578125,[0. 0. 0. 0. 0. 0. 0. 0. 0.]
1742666899839035280,1742666899,831132613,imu_link,-0.0211181640625,0.10174560546875,0.1513671875,0.98297119140625,[0. 0. 0. 0. 0. 0. 0. 0. 0.],-0.01953125,0.001953125,0.15625,[0. 0. 0. 0. 0. 0. 0. 0. 0.],-1.9921875,-0.26953125,9.578125,[0. 0. 0. 0. 0. 0. 0. 0. 0.]
1742666899863493502,1742666899,851098261,imu_link,-0.02142333984375,0.101806640625,0.1551513671875,0.982421875,[0. 0. 0. 0. 0. 0. 0. 0. 0.],-0.01953125,0.001953125,0.15625,[0. 0. 0. 0. 0. 0. 0. 0. 0.],-1.953125,-0.34375,9.5390625,[0. 0. 0. 0. 0. 0. 0. 0. 0.]
1742666899883335872,1742666899,871017965,imu_link,-0.02142333984375,0.101806640625,0.1551513671875,0.982421875,[0. 0. 0. 0. 0. 0. 0. 0. 0.],-0.013671875,0.001953125,0.15625,[0. 0. 0. 0. 0. 0. 0. 0. 0.],-2.0703125,-0.19140625,9.61328125,[0. 0. 0. 0. 0. 0. 0. 0. 0.]
1742666899894305113,1742666899,891015076,imu_link,-0.02142333984375,0.101806640625,0.1551513671875,0.982421875,[0. 0. 0. 0. 0. 0. 0. 0. 0.],-0.013671875,0.001953125,0.15625,[0. 0. 0. 0. 0. 0. 0. 0. 0.],-2.0703125,-0.19140625,9.61328125,[0. 0. 0. 0. 0. 0. 0. 0. 0.]
1742666899918068483,1742666899,911014150,imu_link,-0.021728515625,0.10186767578125,0.15899658203125,0.98175048828125,[0. 0. 0. 0. 0. 0. 0. 0. 0.],-0.013671875,0.001953125,0.15625,[0. 0. 0. 0. 0. 0. 0. 0. 0.],-2.03125,-0.3046875,9.46484375,[0. 0. 0. 0. 0. 0. 0. 0. 0.]
1742666899942753039,1742666899,931123446,imu_link,-0.021728515625,0.10186767578125,0.15899658203125,0.98175048828125,[0. 0. 0. 0. 0. 0. 0. 0. 0.],-0.0078125,-0.001953125,0.154296875,[0. 0. 0. 0. 0. 0. 0. 0. 0.],-2.03125,-0.3046875,9.46484375,[0. 0. 0. 0. 0. 0. 0. 0. 0.]
1742666899963479020,1742666899,951149946,imu_link,-0.0220947265625,0.1019287109375,0.16278076171875,0.98114013671875,[0. 0. 0. 0. 0. 0. 0. 0. 0.],-0.0078125,-0.001953125,0.154296875,[0. 0. 0. 0. 0. 0. 0. 0. 0.],-2.03125,-0.26953125,9.65234375,[0. 0. 0. 0. 0. 0. 0. 0. 0.]
1742666899982381928,1742666899,971009057,imu_link,-0.0220947265625,0.1019287109375,0.16278076171875,0.98114013671875,[0. 0. 0. 0. 0. 0. 0. 0. 0.],-0.013671875,0.00390625,0.150390625,[0. 0. 0. 0. 0. 0. 0. 0. 0.],-1.9921875,-0.26953125,9.5390625,[0. 0. 0. 0. 0. 0. 0. 0. 0.]
1742666899993320779,1742666899,991115965,imu_link,-0.0220947265625,0.1019287109375,0.16278076171875,0.98114013671875,[0. 0. 0. 0. 0. 0. 0. 0. 0.],-0.013671875,0.00390625,0.150390625,[0. 0. 0. 0. 0. 0. 0. 0. 0.],-1.9921875,-0.26953125,9.5390625,[0. 0. 0. 0. 0. 0. 0. 0. 0.]
1742666900028911298,1742666900,11096094,imu_link,-0.0224609375,0.1019287109375,0.16644287109375,0.98052978515625,[0. 0. 0. 0. 0. 0. 0. 0. 0.],-0.013671875,0.00390625,0.150390625,[0. 0. 0. 0. 0. 0. 0. 0. 0.],-1.9921875,-0.3046875,9.58203125,[0. 0. 0. 0. 0. 0. 0. 0. 0.]
1742666900038552057,1742666900,35103076,imu_link,-0.0224609375,0.1019287109375,0.16644287109375,0.98052978515625,[0. 0. 0. 0. 0. 0. 0. 0. 0.],-0.01171875,0.005859375,0.150390625,[0. 0. 0. 0. 0. 0. 0. 0. 0.],-2.10546875,-0.23046875,9.578125,[0. 0. 0. 0. 0. 0. 0. 0. 0.]
1742666900069437261,1742666900,51068168,imu_link,-0.0228271484375,0.10198974609375,0.1700439453125,0.9798583984375,[0. 0. 0. 0. 0. 0. 0. 0. 0.],-0.01171875,0.005859375,0.150390625,[0. 0. 0. 0. 0. 0. 0. 0. 0.],-2.10546875,-0.23046875,9.5390625,[0. 0. 0. 0. 0. 0. 0. 0. 0.]
1742666900073861205,1742666900,72082298,imu_link,-0.0228271484375,0.10198974609375,0.1700439453125,0.9798583984375,[0. 0. 0. 0. 0. 0. 0. 0. 0.],-0.01171875,0.005859375,0.150390625,[0. 0. 0. 0. 0. 0. 0. 0. 0.],-2.10546875,-0.23046875,9.5390625,[0. 0. 0. 0. 0. 0. 0. 0. 0.]
1742666900106354761,1742666900,91142798,imu_link,-0.02325439453125,0.10198974609375,0.17352294921875,0.979248046875,[0. 0. 0. 0. 0. 0. 0. 0. 0.],-0.013671875,0.001953125,0.138671875,[0. 0. 0. 0. 0. 0. 0. 0. 0.],-2.10546875,-0.23046875,9.5390625,[0. 0. 0. 0. 0. 0. 0. 0. 0.]
1742666900113778742,1742666900,111011094,imu_link,-0.02325439453125,0.10198974609375,0.17352294921875,0.979248046875,[0. 0. 0. 0. 0. 0. 0. 0. 0.],-0.013671875,0.001953125,0.138671875,[0. 0. 0. 0. 0. 0. 0. 0. 0.],-2.0703125,-0.3046875,9.61328125,[0. 0. 0. 0. 0. 0. 0. 0. 0.]
1742666900142108316,1742666900,131302928,imu_link,-0.02325439453125,0.10198974609375,0.17352294921875,0.979248046875,[0. 0. 0. 0. 0. 0. 0. 0. 0.],-0.01171875,0.00390625,0.142578125,[0. 0. 0. 0. 0. 0. 0. 0. 0.],-2.03125,-0.3046875,9.58203125,[0. 0. 0. 0. 0. 0. 0. 0. 0.]
1742666900167698650,1742666900,151075576,imu_link,-0.0235595703125,0.10205078125,0.1768798828125,0.9786376953125,[0. 0. 0. 0. 0. 0. 0. 0. 0.],-0.01171875,0.00390625,0.142578125,[0. 0. 0. 0. 0. 0. 0. 0. 0.],-2.03125,-0.3046875,9.58203125,[0. 0. 0. 0. 0. 0. 0. 0. 0.]
1742666900172924242,1742666900,171009872,imu_link,-0.0235595703125,0.10205078125,0.1768798828125,0.9786376953125,[0. 0. 0. 0. 0. 0. 0. 0. 0.],-0.01171875,0.00390625,0.142578125,[0. 0. 0. 0. 0. 0. 0. 0. 0.],-2.03125,-0.3046875,9.58203125,[0. 0. 0. 0. 0. 0. 0. 0. 0.]
1742666900208152094,1742666900,191123909,imu_link,-0.02392578125,0.10205078125,0.18023681640625,0.97802734375,[0. 0. 0. 0. 0. 0. 0. 0. 0.],-0.009765625,0.00390625,0.138671875,[0. 0. 0. 0. 0. 0. 0. 0. 0.],-1.9921875,-0.34375,9.5390625,[0. 0. 0. 0. 0. 0. 0. 0. 0.]
1742666900213072242,1742666900,211293872,imu_link,-0.02392578125,0.10205078125,0.18023681640625,0.97802734375,[0. 0. 0. 0. 0. 0. 0. 0. 0.],-0.009765625,0.00390625,0.138671875,[0. 0. 0. 0. 0. 0. 0. 0. 0.],-1.9921875,-0.34375,9.5390625,[0. 0. 0. 0. 0. 0. 0. 0. 0.]
1742666900242077594,1742666900,231097779,imu_link,-0.02392578125,0.10205078125,0.18023681640625,0.97802734375,[0. 0. 0. 0. 0. 0. 0. 0. 0.],-0.0078125,0.001953125,0.1484375,[0. 0. 0. 0. 0. 0. 0. 0. 0.],-1.9140625,-0.3828125,9.578125,[0. 0. 0. 0. 0. 0. 0. 0. 0.]
1742666900263770205,1742666900,251044224,imu_link,-0.02410888671875,0.10211181640625,0.1837158203125,0.97735595703125,[0. 0. 0. 0. 0. 0. 0. 0. 0.],-0.0078125,0.001953125,0.1484375,[0. 0. 0. 0. 0. 0. 0. 0. 0.],-1.9921875,-0.34375,9.61328125,[0. 0. 0. 0. 0. 0. 0. 0. 0.]
1742666900273126150,1742666900,271130964,imu_link,-0.02410888671875,0.10211181640625,0.1837158203125,0.97735595703125,[0. 0. 0. 0. 0. 0. 0. 0. 0.],-0.0078125,0.001953125,0.1484375,[0. 0. 0. 0. 0. 0. 0. 0. 0.],-1.9921875,-0.34375,9.61328125,[0. 0. 0. 0. 0. 0. 0. 0. 0.]
1742666900307150909,1742666900,291088168,imu_link,-0.02435302734375,0.10211181640625,0.1873779296875,0.9766845703125,[0. 0. 0. 0. 0. 0. 0. 0. 0.],-0.0078125,0.0,0.1484375,[0. 0. 0. 0. 0. 0. 0. 0. 0.],-2.03125,-0.3828125,9.578125,[0. 0. 0. 0. 0. 0. 0. 0. 0.]
1742666900312838131,1742666900,311030927,imu_link,-0.02435302734375,0.10211181640625,0.1873779296875,0.9766845703125,[0. 0. 0. 0. 0. 0. 0. 0. 0.],-0.0078125,0.0,0.1484375,[0. 0. 0. 0. 0. 0. 0. 0. 0.],-2.03125,-0.3828125,9.578125,[0. 0. 0. 0. 0. 0. 0. 0. 0.]
1742666900342627557,1742666900,331114261,imu_link,-0.02435302734375,0.10211181640625,0.1873779296875,0.9766845703125,[0. 0. 0. 0. 0. 0. 0. 0. 0.],-0.0078125,0.0,0.158203125,[0. 0. 0. 0. 0. 0. 0. 0. 0.],-1.9921875,-0.34375,9.578125,[0. 0. 0. 0. 0. 0. 0. 0. 0.]
1742666900364000798,1742666900,351104205,imu_link,-0.02459716796875,0.10205078125,0.19110107421875,0.9759521484375,[0. 0. 0. 0. 0. 0. 0. 0. 0.],-0.0078125,0.0,0.158203125,[0. 0. 0. 0. 0. 0. 0. 0. 0.],-2.0703125,-0.3046875,9.5390625,[0. 0. 0. 0. 0. 0. 0. 0. 0.]
1742666900373009242,1742666900,371109316,imu_link,-0.02459716796875,0.10205078125,0.19110107421875,0.9759521484375,[0. 0. 0. 0. 0. 0. 0. 0. 0.],-0.0078125,0.0,0.158203125,[0. 0. 0. 0. 0. 0. 0. 0. 0.],-2.0703125,-0.3046875,9.5390625,[0. 0. 0. 0. 0. 0. 0. 0. 0.]
1742666900392873946,1742666900,391015076,imu_link,-0.02459716796875,0.10205078125,0.19110107421875,0.9759521484375,[0. 0. 0. 0. 0. 0. 0. 0. 0.],-0.001953125,-0.001953125,0.150390625,[0. 0. 0. 0. 0. 0. 0. 0. 0.],-2.03125,-0.26953125,9.5390625,[0. 0. 0. 0. 0. 0. 0. 0. 0.]
1742666900428347687,1742666900,411031909,imu_link,-0.02496337890625,0.1019287109375,0.19476318359375,0.9752197265625,[0. 0. 0. 0. 0. 0. 0. 0. 0.],-0.001953125,-0.001953125,0.150390625,[0. 0. 0. 0. 0. 0. 0. 0. 0.],-2.03125,-0.19140625,9.58203125,[0. 0. 0. 0. 0. 0. 0. 0. 0.]
1742666900432841946,1742666900,430969372,imu_link,-0.02496337890625,0.1019287109375,0.19476318359375,0.9752197265625,[0. 0. 0. 0. 0. 0. 0. 0. 0.],-0.00390625,0.001953125,0.140625,[0. 0. 0. 0. 0. 0. 0. 0. 0.],-2.03125,-0.19140625,9.58203125,[0. 0. 0. 0. 0. 0. 0. 0. 0.]
1742666900463822038,1742666900,451274335,imu_link,-0.02532958984375,0.10186767578125,0.19818115234375,0.97454833984375,[0. 0. 0. 0. 0. 0. 0. 0. 0.],-0.00390625,0.001953125,0.140625,[0. 0. 0. 0. 0. 0. 0. 0. 0.],-2.10546875,-0.19140625,9.578125,[0. 0. 0. 0. 0. 0. 0. 0. 0.]
1742666900480967057,1742666900,471105798,imu_link,-0.02532958984375,0.10186767578125,0.19818115234375,0.97454833984375,[0. 0. 0. 0. 0. 0. 0. 0. 0.],-0.00390625,0.001953125,0.140625,[0. 0. 0. 0. 0. 0. 0. 0. 0.],-2.10546875,-0.19140625,9.578125,[0. 0. 0. 0. 0. 0. 0. 0. 0.]
1742666900492994927,1742666900,491099131,imu_link,-0.02532958984375,0.10186767578125,0.19818115234375,0.97454833984375,[0. 0. 0. 0. 0. 0. 0. 0. 0.],-0.017578125,-0.001953125,0.13671875,[0. 0. 0. 0. 0. 0. 0. 0. 0.],-1.953125,-0.3046875,9.54296875,[0. 0. 0. 0. 0. 0. 0. 0. 0.]
1742666900518088020,1742666900,511022131,imu_link,-0.0257568359375,0.10174560546875,0.2015380859375,0.97381591796875,[0. 0. 0. 0. 0. 0. 0. 0. 0.],-0.017578125,-0.001953125,0.13671875,[0. 0. 0. 0. 0. 0. 0. 0. 0.],-1.953125,-0.3828125,9.5390625,[0. 0. 0. 0. 0. 0. 0. 0. 0.]
1742666900541927853,1742666900,531101150,imu_link,-0.0257568359375,0.10174560546875,0.2015380859375,0.97381591796875,[0. 0. 0. 0. 0. 0. 0. 0. 0.],-0.013671875,-0.001953125,0.13671875,[0. 0. 0. 0. 0. 0. 0. 0. 0.],-1.953125,-0.3828125,9.5390625,[0. 0. 0. 0. 0. 0. 0. 0. 0.]
1742666900563181020,1742666900,551074001,imu_link,-0.02606201171875,0.10162353515625,0.20489501953125,0.97314453125,[0. 0. 0. 0. 0. 0. 0. 0. 0.],-0.013671875,-0.001953125,0.13671875,[0. 0. 0. 0. 0. 0. 0. 0. 0.],-1.953125,-0.3046875,9.54296875,[0. 0. 0. 0. 0. 0. 0. 0. 0.]
1742666900582248983,1742666900,571127853,imu_link,-0.02606201171875,0.10162353515625,0.20489501953125,0.97314453125,[0. 0. 0. 0. 0. 0. 0. 0. 0.],-0.0078125,0.001953125,0.126953125,[0. 0. 0. 0. 0. 0. 0. 0. 0.],-2.0703125,-0.23046875,9.65234375,[0. 0. 0. 0. 0. 0. 0. 0. 0.]
1742666900592969909,1742666900,591111687,imu_link,-0.02606201171875,0.10162353515625,0.20489501953125,0.97314453125,[0. 0. 0. 0. 0. 0. 0. 0. 0.],-0.0078125,0.001953125,0.126953125,[0. 0. 0. 0. 0. 0. 0. 0. 0.],-2.0703125,-0.23046875,9.65234375,[0. 0. 0. 0. 0. 0. 0. 0. 0.]
1742666900613151390,1742666900,611212872,imu_link,-0.0263671875,0.10150146484375,0.2080078125,0.97247314453125,[0. 0. 0. 0. 0. 0. 0. 0. 0.],-0.0078125,0.001953125,0.126953125,[0. 0. 0. 0. 0. 0. 0. 0. 0.],-2.03125,-0.23046875,9.58203125,[0. 0. 0. 0. 0. 0. 0. 0. 0.]
1742666900641943927,1742666900,631261909,imu_link,-0.0263671875,0.10150146484375,0.2080078125,0.97247314453125,[0. 0. 0. 0. 0. 0. 0. 0. 0.],-0.001953125,0.00390625,0.126953125,[0. 0. 0. 0. 0. 0. 0. 0. 0.],-2.03125,-0.26953125,9.578125,[0. 0. 0. 0. 0. 0. 0. 0. 0.]
1742666900668033853,1742666900,651090112,imu_link,-0.02667236328125,0.1014404296875,0.21112060546875,0.9718017578125,[0. 0. 0. 0. 0. 0. 0. 0. 0.],-0.001953125,0.00390625,0.126953125,[0. 0. 0. 0. 0. 0. 0. 0. 0.],-1.9921875,-0.3046875,9.54296875,[0. 0. 0. 0. 0. 0. 0. 0. 0.]
1742666900678567538,1742666900,671096112,imu_link,-0.02667236328125,0.1014404296875,0.21112060546875,0.9718017578125,[0. 0. 0. 0. 0. 0. 0. 0. 0.],-0.001953125,0.00390625,0.126953125,[0. 0. 0. 0. 0. 0. 0. 0. 0.],-1.9921875,-0.3046875,9.54296875,[0. 0. 0. 0. 0. 0. 0. 0. 0.]
1742666900693697168,1742666900,691087446,imu_link,-0.02667236328125,0.1014404296875,0.21112060546875,0.9718017578125,[0. 0. 0. 0. 0. 0. 0. 0. 0.],-0.0078125,0.001953125,0.11328125,[0. 0. 0. 0. 0. 0. 0. 0. 0.],-1.9921875,-0.3046875,9.54296875,[0. 0. 0. 0. 0. 0. 0. 0. 0.]
1742666900713721446,1742666900,711030835,imu_link,-0.02703857421875,0.10137939453125,0.2138671875,0.97119140625,[0. 0. 0. 0. 0. 0. 0. 0. 0.],-0.0078125,0.001953125,0.11328125,[0. 0. 0. 0. 0. 0. 0. 0. 0.],-1.9921875,-0.3046875,9.58203125,[0. 0. 0. 0. 0. 0. 0. 0. 0.]
1742666900741901853,1742666900,731112446,imu_link,-0.02703857421875,0.10137939453125,0.2138671875,0.97119140625,[0. 0. 0. 0. 0. 0. 0. 0. 0.],-0.015625,0.00390625,0.119140625,[0. 0. 0. 0. 0. 0. 0. 0. 0.],-2.10546875,-0.23046875,9.5390625,[0. 0. 0. 0. 0. 0. 0. 0. 0.]
1742666900761797760,1742666900,755286057,imu_link,-0.02734375,0.101318359375,0.21673583984375,0.9705810546875,[0. 0. 0. 0. 0. 0. 0. 0. 0.],-0.015625,0.00390625,0.119140625,[0. 0. 0. 0. 0. 0. 0. 0. 0.],-2.14453125,-0.19140625,9.58203125,[0. 0. 0. 0. 0. 0. 0. 0. 0.]
1742666900780056649,1742666900,771473649,imu_link,-0.02734375,0.101318359375,0.21673583984375,0.9705810546875,[0. 0. 0. 0. 0. 0. 0. 0. 0.],-0.015625,0.00390625,0.119140625,[0. 0. 0. 0. 0. 0. 0. 0. 0.],-2.14453125,-0.19140625,9.58203125,[0. 0. 0. 0. 0. 0. 0. 0. 0.]
1742666900803698205,1742666900,791084483,imu_link,-0.02764892578125,0.10125732421875,0.21923828125,0.97003173828125,[0. 0. 0. 0. 0. 0. 0. 0. 0.],-0.001953125,0.001953125,0.1015625,[0. 0. 0. 0. 0. 0. 0. 0. 0.],-2.03125,-0.23046875,9.54296875,[0. 0. 0. 0. 0. 0. 0. 0. 0.]
1742666900812983279,1742666900,811102149,imu_link,-0.02764892578125,0.10125732421875,0.21923828125,0.97003173828125,[0. 0. 0. 0. 0. 0. 0. 0. 0.],-0.001953125,0.001953125,0.1015625,[0. 0. 0. 0. 0. 0. 0. 0. 0.],-2.03125,-0.23046875,9.54296875,[0. 0. 0. 0. 0. 0. 0. 0. 0.]
1742666900841914390,1742666900,831106131,imu_link,-0.02764892578125,0.10125732421875,0.21923828125,0.97003173828125,[0. 0. 0. 0. 0. 0. 0. 0. 0.],0.0,0.001953125,0.107421875,[0. 0. 0. 0. 0. 0. 0. 0. 0.],-1.9921875,-0.34375,9.5390625,[0. 0. 0. 0. 0. 0. 0. 0. 0.]
1742666900864097723,1742666900,851099223,imu_link,-0.02789306640625,0.10125732421875,0.22174072265625,0.96942138671875,[0. 0. 0. 0. 0. 0. 0. 0. 0.],0.0,0.001953125,0.107421875,[0. 0. 0. 0. 0. 0. 0. 0. 0.],-1.953125,-0.34375,9.61328125,[0. 0. 0. 0. 0. 0. 0. 0. 0.]
1742666900877380149,1742666900,871094186,imu_link,-0.02789306640625,0.10125732421875,0.22174072265625,0.96942138671875,[0. 0. 0. 0. 0. 0. 0. 0. 0.],0.0,0.001953125,0.107421875,[0. 0. 0. 0. 0. 0. 0. 0. 0.],-1.953125,-0.34375,9.61328125,[0. 0. 0. 0. 0. 0. 0. 0. 0.]
1742666900906742149,1742666900,891077723,imu_link,-0.028076171875,0.10125732421875,0.22430419921875,0.96881103515625,[0. 0. 0. 0. 0. 0. 0. 0. 0.],-0.001953125,0.00390625,0.107421875,[0. 0. 0. 0. 0. 0. 0. 0. 0.],-1.9921875,-0.34375,9.65234375,[0. 0. 0. 0. 0. 0. 0. 0. 0.]
1742666900913010223,1742666900,911004964,imu_link,-0.028076171875,0.10125732421875,0.22430419921875,0.96881103515625,[0. 0. 0. 0. 0. 0. 0. 0. 0.],-0.001953125,0.00390625,0.107421875,[0. 0. 0. 0. 0. 0. 0. 0. 0.],-1.9921875,-0.34375,9.65234375,[0. 0. 0. 0. 0. 0. 0. 0. 0.]
1742666900937837631,1742666900,931081797,imu_link,-0.028076171875,0.10125732421875,0.22430419921875,0.96881103515625,[0. 0. 0. 0. 0. 0. 0. 0. 0.],-0.00390625,-0.00390625,0.10546875,[0. 0. 0. 0. 0. 0. 0. 0. 0.],-1.9921875,-0.3046875,9.50390625,[0. 0. 0. 0. 0. 0. 0. 0. 0.]
1742666900965206223,1742666900,951253871,imu_link,-0.0283203125,0.1011962890625,0.226806640625,0.96826171875,[0. 0. 0. 0. 0. 0. 0. 0. 0.],-0.00390625,-0.00390625,0.10546875,[0. 0. 0. 0. 0. 0. 0. 0. 0.],-1.953125,-0.34375,9.578125,[0. 0. 0. 0. 0. 0. 0. 0. 0.]
1742666900981260168,1742666900,971047983,imu_link,-0.0283203125,0.1011962890625,0.226806640625,0.96826171875,[0. 0. 0. 0. 0. 0. 0. 0. 0.],-0.00390625,-0.00390625,0.10546875,[0. 0. 0. 0. 0. 0. 0. 0. 0.],-1.953125,-0.34375,9.578125,[0. 0. 0. 0. 0. 0. 0. 0. 0.]
1742666901002641871,1742666900,991110094,imu_link,-0.0286865234375,0.10101318359375,0.22930908203125,0.9676513671875,[0. 0. 0. 0. 0. 0. 0. 0. 0.],-0.005859375,0.001953125,0.103515625,[0. 0. 0. 0. 0. 0. 0. 0. 0.],-2.0703125,-0.23046875,9.5,[0. 0. 0. 0. 0. 0. 0. 0. 0.]
1742666901018404853,1742666901,11093483,imu_link,-0.0286865234375,0.10101318359375,0.22930908203125,0.9676513671875,[0. 0. 0. 0. 0. 0. 0. 0. 0.],-0.005859375,0.001953125,0.103515625,[0. 0. 0. 0. 0. 0. 0. 0. 0.],-2.0703125,-0.26953125,9.58203125,[0. 0. 0. 0. 0. 0. 0. 0. 0.]
1742666901037744057,1742666901,31058297,imu_link,-0.0286865234375,0.10101318359375,0.22930908203125,0.9676513671875,[0. 0. 0. 0. 0. 0. 0. 0. 0.],-0.005859375,0.0,0.099609375,[0. 0. 0. 0. 0. 0. 0. 0. 0.],-2.0703125,-0.26953125,9.58203125,[0. 0. 0. 0. 0. 0. 0. 0. 0.]
1742666901064097371,1742666901,51039168,imu_link,-0.0289306640625,0.100830078125,0.23162841796875,0.96710205078125,[0. 0. 0. 0. 0. 0. 0. 0. 0.],-0.005859375,0.0,0.099609375,[0. 0. 0. 0. 0. 0. 0. 0. 0.],-2.0703125,-0.3046875,9.578125,[0. 0. 0. 0. 0. 0. 0. 0. 0.]
1742666901080937723,1742666901,71064816,imu_link,-0.0289306640625,0.100830078125,0.23162841796875,0.96710205078125,[0. 0. 0. 0. 0. 0. 0. 0. 0.],-0.005859375,0.0,0.1015625,[0. 0. 0. 0. 0. 0. 0. 0. 0.],-2.0703125,-0.3046875,9.578125,[0. 0. 0. 0. 0. 0. 0. 0. 0.]
1742666901102705057,1742666901,91137038,imu_link,-0.029296875,0.1007080078125,0.23406982421875,0.966552734375,[0. 0. 0. 0. 0. 0. 0. 0. 0.],-0.005859375,0.0,0.1015625,[0. 0. 0. 0. 0. 0. 0. 0. 0.],-2.03125,-0.3046875,9.50390625,[0. 0. 0. 0. 0. 0. 0. 0. 0.]
1742666901113478575,1742666901,111018427,imu_link,-0.029296875,0.1007080078125,0.23406982421875,0.966552734375,[0. 0. 0. 0. 0. 0. 0. 0. 0.],-0.005859375,0.0,0.1015625,[0. 0. 0. 0. 0. 0. 0. 0. 0.],-2.03125,-0.3046875,9.58203125,[0. 0. 0. 0. 0. 0. 0. 0. 0.]
1742666901141097982,1742666901,131206945,imu_link,-0.029296875,0.1007080078125,0.23406982421875,0.966552734375,[0. 0. 0. 0. 0. 0. 0. 0. 0.],-0.001953125,-0.00390625,0.095703125,[0. 0. 0. 0. 0. 0. 0. 0. 0.],-2.03125,-0.3046875,9.609375,[0. 0. 0. 0. 0. 0. 0. 0. 0.]
1742666901155995668,1742666901,152572927,imu_link,-0.029541015625,0.1005859375,0.236328125,0.96600341796875,[0. 0. 0. 0. 0. 0. 0. 0. 0.],-0.001953125,-0.00390625,0.095703125,[0. 0. 0. 0. 0. 0. 0. 0. 0.],-2.03125,-0.3046875,9.609375,[0. 0. 0. 0. 0. 0. 0. 0. 0.]
1742666901181000371,1742666901,171124908,imu_link,-0.029541015625,0.1005859375,0.236328125,0.96600341796875,[0. 0. 0. 0. 0. 0. 0. 0. 0.],-0.00390625,-0.001953125,0.099609375,[0. 0. 0. 0. 0. 0. 0. 0. 0.],-2.03125,-0.26953125,9.5390625,[0. 0. 0. 0. 0. 0. 0. 0. 0.]
1742666901204841742,1742666901,191053631,imu_link,-0.02978515625,0.10052490234375,0.23870849609375,0.96539306640625,[0. 0. 0. 0. 0. 0. 0. 0. 0.],-0.00390625,-0.001953125,0.099609375,[0. 0. 0. 0. 0. 0. 0. 0. 0.],-2.03125,-0.26953125,9.5390625,[0. 0. 0. 0. 0. 0. 0. 0. 0.]
1742666901212936927,1742666901,211040279,imu_link,-0.02978515625,0.10052490234375,0.23870849609375,0.96539306640625,[0. 0. 0. 0. 0. 0. 0. 0. 0.],-0.00390625,-0.001953125,0.099609375,[0. 0. 0. 0. 0. 0. 0. 0. 0.],-1.9921875,-0.3046875,9.54296875,[0. 0. 0. 0. 0. 0. 0. 0. 0.]
1742666901241828964,1742666901,231111464,imu_link,-0.02978515625,0.10052490234375,0.23870849609375,0.96539306640625,[0. 0. 0. 0. 0. 0. 0. 0. 0.],-0.001953125,0.0,0.1015625,[0. 0. 0. 0. 0. 0. 0. 0. 0.],-1.9921875,-0.26953125,9.61328125,[0. 0. 0. 0. 0. 0. 0. 0. 0.]
1742666901257415131,1742666901,253958186,imu_link,-0.02996826171875,0.1004638671875,0.240966796875,0.96484375,[0. 0. 0. 0. 0. 0. 0. 0. 0.],-0.001953125,0.0,0.1015625,[0. 0. 0. 0. 0. 0. 0. 0. 0.],-1.9921875,-0.26953125,9.61328125,[0. 0. 0. 0. 0. 0. 0. 0. 0.]
1742666901281897742,1742666901,271302686,imu_link,-0.02996826171875,0.1004638671875,0.240966796875,0.96484375,[0. 0. 0. 0. 0. 0. 0. 0. 0.],-0.001953125,-0.00390625,0.091796875,[0. 0. 0. 0. 0. 0. 0. 0. 0.],-1.9921875,-0.26953125,9.578125,[0. 0. 0. 0. 0. 0. 0. 0. 0.]
1742666901304102186,1742666901,291045205,imu_link,-0.0302734375,0.100341796875,0.2431640625,0.96429443359375,[0. 0. 0. 0. 0. 0. 0. 0. 0.],-0.001953125,-0.00390625,0.091796875,[0. 0. 0. 0. 0. 0. 0. 0. 0.],-1.9921875,-0.26953125,9.578125,[0. 0. 0. 0. 0. 0. 0. 0. 0.]
1742666901313779186,1742666901,311180482,imu_link,-0.0302734375,0.100341796875,0.2431640625,0.96429443359375,[0. 0. 0. 0. 0. 0. 0. 0. 0.],-0.001953125,-0.00390625,0.091796875,[0. 0. 0. 0. 0. 0. 0. 0. 0.],-2.10546875,-0.19140625,9.61328125,[0. 0. 0. 0. 0. 0. 0. 0. 0.]
1742666901341014760,1742666901,331077149,imu_link,-0.0302734375,0.100341796875,0.2431640625,0.96429443359375,[0. 0. 0. 0. 0. 0. 0. 0. 0.],-0.001953125,-0.001953125,0.08203125,[0. 0. 0. 0. 0. 0. 0. 0. 0.],-2.10546875,-0.23046875,9.5,[0. 0. 0. 0. 0. 0. 0. 0. 0.]
1742666901355393112,1742666901,352572501,imu_link,-0.03057861328125,0.1002197265625,0.2451171875,0.96380615234375,[0. 0. 0. 0. 0. 0. 0. 0. 0.],-0.001953125,-0.001953125,0.08203125,[0. 0. 0. 0. 0. 0. 0. 0. 0.],-2.10546875,-0.23046875,9.5,[0. 0. 0. 0. 0. 0. 0. 0. 0.]
1742666901378626964,1742666901,371043853,imu_link,-0.03057861328125,0.1002197265625,0.2451171875,0.96380615234375,[0. 0. 0. 0. 0. 0. 0. 0. 0.],-0.005859375,-0.001953125,0.0703125,[0. 0. 0. 0. 0. 0. 0. 0. 0.],-2.14453125,-0.15234375,9.578125,[0. 0. 0. 0. 0. 0. 0. 0. 0.]
1742666901405601408,1742666901,391113760,imu_link,-0.031005859375,0.10009765625,0.24688720703125,0.96337890625,[0. 0. 0. 0. 0. 0. 0. 0. 0.],-0.005859375,-0.001953125,0.0703125,[0. 0. 0. 0. 0. 0. 0. 0. 0.],-2.10546875,-0.19140625,9.5,[0. 0. 0. 0. 0. 0. 0. 0. 0.]
1742666901413642538,1742666901,411073260,imu_link,-0.031005859375,0.10009765625,0.24688720703125,0.96337890625,[0. 0. 0. 0. 0. 0. 0. 0. 0.],-0.005859375,-0.001953125,0.0703125,[0. 0. 0. 0. 0. 0. 0. 0. 0.],-2.10546875,-0.19140625,9.5,[0. 0. 0. 0. 0. 0. 0. 0. 0.]
1742666901441634130,1742666901,431068927,imu_link,-0.031005859375,0.10009765625,0.24688720703125,0.96337890625,[0. 0. 0. 0. 0. 0. 0. 0. 0.],-0.015625,-0.00390625,0.0703125,[0. 0. 0. 0. 0. 0. 0. 0. 0.],-1.9140625,-0.3046875,9.58203125,[0. 0. 0. 0. 0. 0. 0. 0. 0.]
1742666901460556556,1742666901,453129834,imu_link,-0.03143310546875,0.0999755859375,0.24853515625,0.96295166015625,[0. 0. 0. 0. 0. 0. 0. 0. 0.],-0.015625,-0.00390625,0.0703125,[0. 0. 0. 0. 0. 0. 0. 0. 0.],-1.83984375,-0.3828125,9.58203125,[0. 0. 0. 0. 0. 0. 0. 0. 0.]
1742666901478465816,1742666901,471065112,imu_link,-0.03143310546875,0.0999755859375,0.24853515625,0.96295166015625,[0. 0. 0. 0. 0. 0. 0. 0. 0.],-0.013671875,-0.001953125,0.076171875,[0. 0. 0. 0. 0. 0. 0. 0. 0.],-1.83984375,-0.3828125,9.58203125,[0. 0. 0. 0. 0. 0. 0. 0. 0.]
1742666901505715964,1742666901,491273242,imu_link,-0.03179931640625,0.0999755859375,0.25030517578125,0.96246337890625,[0. 0. 0. 0. 0. 0. 0. 0. 0.],-0.013671875,-0.001953125,0.076171875,[0. 0. 0. 0. 0. 0. 0. 0. 0.],-1.953125,-0.3046875,9.609375,[0. 0. 0. 0. 0. 0. 0. 0. 0.]
1742666901513610427,1742666901,511035408,imu_link,-0.03179931640625,0.0999755859375,0.25030517578125,0.96246337890625,[0. 0. 0. 0. 0. 0. 0. 0. 0.],-0.013671875,-0.001953125,0.076171875,[0. 0. 0. 0. 0. 0. 0. 0. 0.],-1.953125,-0.3046875,9.609375,[0. 0. 0. 0. 0. 0. 0. 0. 0.]
1742666901538448445,1742666901,531082260,imu_link,-0.03179931640625,0.0999755859375,0.25030517578125,0.96246337890625,[0. 0. 0. 0. 0. 0. 0. 0. 0.],-0.005859375,0.001953125,0.0703125,[0. 0. 0. 0. 0. 0. 0. 0. 0.],-2.03125,-0.3046875,9.54296875,[0. 0. 0. 0. 0. 0. 0. 0. 0.]
1742666901565999816,1742666901,551038982,imu_link,-0.03204345703125,0.099853515625,0.251953125,0.9620361328125,[0. 0. 0. 0. 0. 0. 0. 0. 0.],-0.005859375,0.001953125,0.0703125,[0. 0. 0. 0. 0. 0. 0. 0. 0.],-2.0703125,-0.26953125,9.54296875,[0. 0. 0. 0. 0. 0. 0. 0. 0.]
1742666901581943519,1742666901,571026167,imu_link,-0.03204345703125,0.099853515625,0.251953125,0.9620361328125,[0. 0. 0. 0. 0. 0. 0. 0. 0.],0.0,0.001953125,0.068359375,[0. 0. 0. 0. 0. 0. 0. 0. 0.],-2.18359375,-0.26953125,9.5,[0. 0. 0. 0. 0. 0. 0. 0. 0.]
1742666901603760186,1742666901,591058890,imu_link,-0.03228759765625,0.09967041015625,0.25360107421875,0.96160888671875,[0. 0. 0. 0. 0. 0. 0. 0. 0.],0.0,0.001953125,0.068359375,[0. 0. 0. 0. 0. 0. 0. 0. 0.],-2.18359375,-0.26953125,9.5,[0. 0. 0. 0. 0. 0. 0. 0. 0.]
1742666901619147334,1742666901,611158038,imu_link,-0.03228759765625,0.09967041015625,0.25360107421875,0.96160888671875,[0. 0. 0. 0. 0. 0. 0. 0. 0.],0.0,0.001953125,0.068359375,[0. 0. 0. 0. 0. 0. 0. 0. 0.],-2.10546875,-0.3046875,9.578125,[0. 0. 0. 0. 0. 0. 0. 0. 0.]
1742666901638678575,1742666901,631132427,imu_link,-0.03228759765625,0.09967041015625,0.25360107421875,0.96160888671875,[0. 0. 0. 0. 0. 0. 0. 0. 0.],0.0078125,-0.001953125,0.076171875,[0. 0. 0. 0. 0. 0. 0. 0. 0.],-2.10546875,-0.3046875,9.578125,[0. 0. 0. 0. 0. 0. 0. 0. 0.]
1742666901666456945,1742666901,651094593,imu_link,-0.032470703125,0.09954833984375,0.2552490234375,0.961181640625,[0. 0. 0. 0. 0. 0. 0. 0. 0.],0.0078125,-0.001953125,0.076171875,[0. 0. 0. 0. 0. 0. 0. 0. 0.],-2.03125,-0.3046875,9.609375,[0. 0. 0. 0. 0. 0. 0. 0. 0.]
1742666901680847538,1742666901,671008315,imu_link,-0.032470703125,0.09954833984375,0.2552490234375,0.961181640625,[0. 0. 0. 0. 0. 0. 0. 0. 0.],0.00390625,-0.001953125,0.06640625,[0. 0. 0. 0. 0. 0. 0. 0. 0.],-1.9921875,-0.26953125,9.5,[0. 0. 0. 0. 0. 0. 0. 0. 0.]
1742666901703218556,1742666901,691021130,imu_link,-0.03277587890625,0.09942626953125,0.25689697265625,0.96075439453125,[0. 0. 0. 0. 0. 0. 0. 0. 0.],0.00390625,-0.001953125,0.06640625,[0. 0. 0. 0. 0. 0. 0. 0. 0.],-1.9921875,-0.26953125,9.5,[0. 0. 0. 0. 0. 0. 0. 0. 0.]
1742666901714551093,1742666901,711013760,imu_link,-0.03277587890625,0.09942626953125,0.25689697265625,0.96075439453125,[0. 0. 0. 0. 0. 0. 0. 0. 0.],0.00390625,-0.001953125,0.06640625,[0. 0. 0. 0. 0. 0. 0. 0. 0.],-1.9140625,-0.34375,9.61328125,[0. 0. 0. 0. 0. 0. 0. 0. 0.]
1742666901751437427,1742666901,731045075,imu_link,-0.03302001953125,0.09930419921875,0.2584228515625,0.9603271484375,[0. 0. 0. 0. 0. 0. 0. 0. 0.],0.005859375,-0.001953125,0.068359375,[0. 0. 0. 0. 0. 0. 0. 0. 0.],-1.9140625,-0.3046875,9.58203125,[0. 0. 0. 0. 0. 0. 0. 0. 0.]
1742666901757642093,1742666901,754110538,imu_link,-0.03302001953125,0.09930419921875,0.2584228515625,0.9603271484375,[0. 0. 0. 0. 0. 0. 0. 0. 0.],0.005859375,-0.001953125,0.068359375,[0. 0. 0. 0. 0. 0. 0. 0. 0.],-1.9140625,-0.3046875,9.58203125,[0. 0. 0. 0. 0. 0. 0. 0. 0.]
1742666901782323315,1742666901,771187871,imu_link,-0.03302001953125,0.09930419921875,0.2584228515625,0.9603271484375,[0. 0. 0. 0. 0. 0. 0. 0. 0.],0.0,-0.00390625,0.060546875,[0. 0. 0. 0. 0. 0. 0. 0. 0.],-2.03125,-0.19140625,9.58203125,[0. 0. 0. 0. 0. 0. 0. 0. 0.]
1742666901809013001,1742666901,791024575,imu_link,-0.0333251953125,0.09912109375,0.25994873046875,0.9599609375,[0. 0. 0. 0. 0. 0. 0. 0. 0.],0.0,-0.00390625,0.060546875,[0. 0. 0. 0. 0. 0. 0. 0. 0.],-2.14453125,-0.19140625,9.58203125,[0. 0. 0. 0. 0. 0. 0. 0. 0.]
1742666901815350278,1742666901,811883871,imu_link,-0.0333251953125,0.09912109375,0.25994873046875,0.9599609375,[0. 0. 0. 0. 0. 0. 0. 0. 0.],0.0,-0.00390625,0.060546875,[0. 0. 0. 0. 0. 0. 0. 0. 0.],-2.14453125,-0.19140625,9.58203125,[0. 0. 0. 0. 0. 0. 0. 0. 0.]
1742666901851234871,1742666901,831021223,imu_link,-0.03369140625,0.09893798828125,0.26129150390625,0.9595947265625,[0. 0. 0. 0. 0. 0. 0. 0. 0.],-0.0078125,-0.00390625,0.05859375,[0. 0. 0. 0. 0. 0. 0. 0. 0.],-2.0703125,-0.3046875,9.578125,[0. 0. 0. 0. 0. 0. 0. 0. 0.]
1742666901858112667,1742666901,854003334,imu_link,-0.03369140625,0.09893798828125,0.26129150390625,0.9595947265625,[0. 0. 0. 0. 0. 0. 0. 0. 0.],-0.0078125,-0.00390625,0.05859375,[0. 0. 0. 0. 0. 0. 0. 0. 0.],-2.0703125,-0.3046875,9.578125,[0. 0. 0. 0. 0. 0. 0. 0. 0.]
1742666901883119519,1742666901,871025630,imu_link,-0.03369140625,0.09893798828125,0.26129150390625,0.9595947265625,[0. 0. 0. 0. 0. 0. 0. 0. 0.],-0.009765625,-0.00390625,0.056640625,[0. 0. 0. 0. 0. 0. 0. 0. 0.],-2.0703125,-0.3046875,9.578125,[0. 0. 0. 0. 0. 0. 0. 0. 0.]
1742666901905332667,1742666901,891024204,imu_link,-0.03399658203125,0.09881591796875,0.2626953125,0.959228515625,[0. 0. 0. 0. 0. 0. 0. 0. 0.],-0.009765625,-0.00390625,0.056640625,[0. 0. 0. 0. 0. 0. 0. 0. 0.],-2.03125,-0.3046875,9.54296875,[0. 0. 0. 0. 0. 0. 0. 0. 0.]
1742666901914615260,1742666901,911050260,imu_link,-0.03399658203125,0.09881591796875,0.2626953125,0.959228515625,[0. 0. 0. 0. 0. 0. 0. 0. 0.],-0.009765625,-0.00390625,0.056640625,[0. 0. 0. 0. 0. 0. 0. 0. 0.],-2.03125,-0.3046875,9.54296875,[0. 0. 0. 0. 0. 0. 0. 0. 0.]
1742666901952294649,1742666901,931050019,imu_link,-0.03436279296875,0.09869384765625,0.2640380859375,0.9588623046875,[0. 0. 0. 0. 0. 0. 0. 0. 0.],-0.005859375,0.0,0.05859375,[0. 0. 0. 0. 0. 0. 0. 0. 0.],-1.9921875,-0.34375,9.578125,[0. 0. 0. 0. 0. 0. 0. 0. 0.]
1742666901962102352,1742666901,955377223,imu_link,-0.03436279296875,0.09869384765625,0.2640380859375,0.9588623046875,[0. 0. 0. 0. 0. 0. 0. 0. 0.],-0.005859375,0.0,0.05859375,[0. 0. 0. 0. 0. 0. 0. 0. 0.],-2.0703125,-0.26953125,9.609375,[0. 0. 0. 0. 0. 0. 0. 0. 0.]
1742666901978908056,1742666901,971019852,imu_link,-0.03436279296875,0.09869384765625,0.2640380859375,0.9588623046875,[0. 0. 0. 0. 0. 0. 0. 0. 0.],-0.001953125,-0.00390625,0.0546875,[0. 0. 0. 0. 0. 0. 0. 0. 0.],-2.0703125,-0.26953125,9.609375,[0. 0. 0. 0. 0. 0. 0. 0. 0.]
1742666902005755223,1742666901,991138278,imu_link,-0.03466796875,0.09857177734375,0.26531982421875,0.95849609375,[0. 0. 0. 0. 0. 0. 0. 0. 0.],-0.001953125,-0.00390625,0.0546875,[0. 0. 0. 0. 0. 0. 0. 0. 0.],-1.9921875,-0.19140625,9.58203125,[0. 0. 0. 0. 0. 0. 0. 0. 0.]
1742666902014803519,1742666902,11233741,imu_link,-0.03466796875,0.09857177734375,0.26531982421875,0.95849609375,[0. 0. 0. 0. 0. 0. 0. 0. 0.],-0.001953125,-0.00390625,0.0546875,[0. 0. 0. 0. 0. 0. 0. 0. 0.],-1.9921875,-0.19140625,9.58203125,[0. 0. 0. 0. 0. 0. 0. 0. 0.]
1742666902050992908,1742666902,31106334,imu_link,-0.0350341796875,0.0985107421875,0.2664794921875,0.95819091796875,[0. 0. 0. 0. 0. 0. 0. 0. 0.],0.0,-0.001953125,0.05078125,[0. 0. 0. 0. 0. 0. 0. 0. 0.],-1.9921875,-0.26953125,9.5390625,[0. 0. 0. 0. 0. 0. 0. 0. 0.]
1742666902060563760,1742666902,58600278,imu_link,-0.0350341796875,0.0985107421875,0.2664794921875,0.95819091796875,[0. 0. 0. 0. 0. 0. 0. 0. 0.],0.0,-0.001953125,0.05078125,[0. 0. 0. 0. 0. 0. 0. 0. 0.],-1.87890625,-0.3046875,9.578125,[0. 0. 0. 0. 0. 0. 0. 0. 0.]
1742666902078552408,1742666902,71016686,imu_link,-0.0350341796875,0.0985107421875,0.2664794921875,0.95819091796875,[0. 0. 0. 0. 0. 0. 0. 0. 0.],0.0,-0.001953125,0.048828125,[0. 0. 0. 0. 0. 0. 0. 0. 0.],-1.87890625,-0.3046875,9.578125,[0. 0. 0. 0. 0. 0. 0. 0. 0.]
1742666902105675963,1742666902,91099593,imu_link,-0.03533935546875,0.098388671875,0.26763916015625,0.95782470703125,[0. 0. 0. 0. 0. 0. 0. 0. 0.],0.0,-0.001953125,0.048828125,[0. 0. 0. 0. 0. 0. 0. 0. 0.],-1.9921875,-0.34375,9.61328125,[0. 0. 0. 0. 0. 0. 0. 0. 0.]
1742666902118908612,1742666902,111081130,imu_link,-0.03533935546875,0.098388671875,0.26763916015625,0.95782470703125,[0. 0. 0. 0. 0. 0. 0. 0. 0.],0.0,-0.001953125,0.048828125,[0. 0. 0. 0. 0. 0. 0. 0. 0.],-1.9921875,-0.34375,9.61328125,[0. 0. 0. 0. 0. 0. 0. 0. 0.]
1742666902134698074,1742666902,131086871,imu_link,-0.03533935546875,0.098388671875,0.26763916015625,0.95782470703125,[0. 0. 0. 0. 0. 0. 0. 0. 0.],-0.009765625,-0.001953125,0.046875,[0. 0. 0. 0. 0. 0. 0. 0. 0.],-2.03125,-0.34375,9.5390625,[0. 0. 0. 0. 0. 0. 0. 0. 0.]
1742666902166337945,1742666902,151084815,imu_link,-0.03570556640625,0.0982666015625,0.268798828125,0.95751953125,[0. 0. 0. 0. 0. 0. 0. 0. 0.],-0.009765625,-0.001953125,0.046875,[0. 0. 0. 0. 0. 0. 0. 0. 0.],-2.10546875,-0.34375,9.50390625,[0. 0. 0. 0. 0. 0. 0. 0. 0.]
1742666902182313889,1742666902,171031186,imu_link,-0.03570556640625,0.0982666015625,0.268798828125,0.95751953125,[0. 0. 0. 0. 0. 0. 0. 0. 0.],-0.00390625,0.001953125,0.046875,[0. 0. 0. 0. 0. 0. 0. 0. 0.],-2.10546875,-0.34375,9.50390625,[0. 0. 0. 0. 0. 0. 0. 0. 0.]
1742666902203993889,1742666902,191020463,imu_link,-0.03594970703125,0.09820556640625,0.2698974609375,0.95721435546875,[0. 0. 0. 0. 0. 0. 0. 0. 0.],-0.00390625,0.001953125,0.046875,[0. 0. 0. 0. 0. 0. 0. 0. 0.],-2.10546875,-0.23046875,9.61328125,[0. 0. 0. 0. 0. 0. 0. 0. 0.]
1742666902218518389,1742666902,211145204,imu_link,-0.03594970703125,0.09820556640625,0.2698974609375,0.95721435546875,[0. 0. 0. 0. 0. 0. 0. 0. 0.],-0.00390625,0.001953125,0.046875,[0. 0. 0. 0. 0. 0. 0. 0. 0.],-2.03125,-0.23046875,9.54296875,[0. 0. 0. 0. 0. 0. 0. 0. 0.]
1742666902238487130,1742666902,231062741,imu_link,-0.03594970703125,0.09820556640625,0.2698974609375,0.95721435546875,[0. 0. 0. 0. 0. 0. 0. 0. 0.],-0.005859375,-0.00390625,0.041015625,[0. 0. 0. 0. 0. 0. 0. 0. 0.],-2.03125,-0.23046875,9.54296875,[0. 0. 0. 0. 0. 0. 0. 0. 0.]
1742666902266720630,1742666902,251080686,imu_link,-0.0362548828125,0.09808349609375,0.2708740234375,0.9569091796875,[0. 0. 0. 0. 0. 0. 0. 0. 0.],-0.005859375,-0.00390625,0.041015625,[0. 0. 0. 0. 0. 0. 0. 0. 0.],-1.953125,-0.3046875,9.54296875,[0. 0. 0. 0. 0. 0. 0. 0. 0.]
1742666902283277685,1742666902,271137223,imu_link,-0.0362548828125,0.09808349609375,0.2708740234375,0.9569091796875,[0. 0. 0. 0. 0. 0. 0. 0. 0.],-0.001953125,0.001953125,0.044921875,[0. 0. 0. 0. 0. 0. 0. 0. 0.],-2.0703125,-0.26953125,9.6484375,[0. 0. 0. 0. 0. 0. 0. 0. 0.]
1742666902308672093,1742666902,291048611,imu_link,-0.0364990234375,0.09796142578125,0.27191162109375,0.95660400390625,[0. 0. 0. 0. 0. 0. 0. 0. 0.],-0.001953125,0.001953125,0.044921875,[0. 0. 0. 0. 0. 0. 0. 0. 0.],-2.0703125,-0.26953125,9.6484375,[0. 0. 0. 0. 0. 0. 0. 0. 0.]
1742666902314774667,1742666902,311350260,imu_link,-0.0364990234375,0.09796142578125,0.27191162109375,0.95660400390625,[0. 0. 0. 0. 0. 0. 0. 0. 0.],-0.001953125,0.001953125,0.044921875,[0. 0. 0. 0. 0. 0. 0. 0. 0.],-1.9921875,-0.3046875,9.54296875,[0. 0. 0. 0. 0. 0. 0. 0. 0.]
1742666902351215204,1742666902,331048482,imu_link,-0.0367431640625,0.0977783203125,0.27276611328125,0.95635986328125,[0. 0. 0. 0. 0. 0. 0. 0. 0.],-0.005859375,-0.005859375,0.0390625,[0. 0. 0. 0. 0. 0. 0. 0. 0.],-1.953125,-0.34375,9.578125,[0. 0. 0. 0. 0. 0. 0. 0. 0.]
1742666902357258278,1742666902,353890334,imu_link,-0.0367431640625,0.0977783203125,0.27276611328125,0.95635986328125,[0. 0. 0. 0. 0. 0. 0. 0. 0.],-0.005859375,-0.005859375,0.0390625,[0. 0. 0. 0. 0. 0. 0. 0. 0.],-1.953125,-0.34375,9.578125,[0. 0. 0. 0. 0. 0. 0. 0. 0.]
1742666902383069537,1742666902,371023834,imu_link,-0.0367431640625,0.0977783203125,0.27276611328125,0.95635986328125,[0. 0. 0. 0. 0. 0. 0. 0. 0.],-0.001953125,0.0,0.05078125,[0. 0. 0. 0. 0. 0. 0. 0. 0.],-1.9921875,-0.3046875,9.54296875,[0. 0. 0. 0. 0. 0. 0. 0. 0.]
1742666902408145852,1742666902,391013519,imu_link,-0.0369873046875,0.09765625,0.27392578125,0.9560546875,[0. 0. 0. 0. 0. 0. 0. 0. 0.],-0.001953125,0.0,0.05078125,[0. 0. 0. 0. 0. 0. 0. 0. 0.],-2.0703125,-0.26953125,9.58203125,[0. 0. 0. 0. 0. 0. 0. 0. 0.]
1742666902414602593,1742666902,411016019,imu_link,-0.0369873046875,0.09765625,0.27392578125,0.9560546875,[0. 0. 0. 0. 0. 0. 0. 0. 0.],-0.001953125,0.0,0.05078125,[0. 0. 0. 0. 0. 0. 0. 0. 0.],-2.0703125,-0.26953125,9.58203125,[0. 0. 0. 0. 0. 0. 0. 0. 0.]
1742666902452927482,1742666902,431092908,imu_link,-0.03717041015625,0.09759521484375,0.27484130859375,0.955810546875,[0. 0. 0. 0. 0. 0. 0. 0. 0.],-0.001953125,0.0,0.03515625,[0. 0. 0. 0. 0. 0. 0. 0. 0.],-2.03125,-0.26953125,9.578125,[0. 0. 0. 0. 0. 0. 0. 0. 0.]
1742666902457805297,1742666902,455618722,imu_link,-0.03717041015625,0.09759521484375,0.27484130859375,0.955810546875,[0. 0. 0. 0. 0. 0. 0. 0. 0.],-0.001953125,0.0,0.03515625,[0. 0. 0. 0. 0. 0. 0. 0. 0.],-2.03125,-0.26953125,9.578125,[0. 0. 0. 0. 0. 0. 0. 0. 0.]
1742666902483023482,1742666902,471015371,imu_link,-0.03717041015625,0.09759521484375,0.27484130859375,0.955810546875,[0. 0. 0. 0. 0. 0. 0. 0. 0.],0.0,-0.001953125,0.0390625,[0. 0. 0. 0. 0. 0. 0. 0. 0.],-2.03125,-0.3046875,9.54296875,[0. 0. 0. 0. 0. 0. 0. 0. 0.]
1742666902504893408,1742666902,491093611,imu_link,-0.03741455078125,0.0975341796875,0.2757568359375,0.95556640625,[0. 0. 0. 0. 0. 0. 0. 0. 0.],0.0,-0.001953125,0.0390625,[0. 0. 0. 0. 0. 0. 0. 0. 0.],-1.953125,-0.26953125,9.578125,[0. 0. 0. 0. 0. 0. 0. 0. 0.]
1742666902514687056,1742666902,511183352,imu_link,-0.03741455078125,0.0975341796875,0.2757568359375,0.95556640625,[0. 0. 0. 0. 0. 0. 0. 0. 0.],0.0,-0.001953125,0.0390625,[0. 0. 0. 0. 0. 0. 0. 0. 0.],-1.953125,-0.26953125,9.578125,[0. 0. 0. 0. 0. 0. 0. 0. 0.]
1742666902552128945,1742666902,531094148,imu_link,-0.03759765625,0.09747314453125,0.27667236328125,0.95526123046875,[0. 0. 0. 0. 0. 0. 0. 0. 0.],0.0,0.001953125,0.037109375,[0. 0. 0. 0. 0. 0. 0. 0. 0.],-2.03125,-0.3046875,9.609375,[0. 0. 0. 0. 0. 0. 0. 0. 0.]
1742666902560863611,1742666902,555392963,imu_link,-0.03759765625,0.09747314453125,0.27667236328125,0.95526123046875,[0. 0. 0. 0. 0. 0. 0. 0. 0.],0.0,0.001953125,0.037109375,[0. 0. 0. 0. 0. 0. 0. 0. 0.],-2.0703125,-0.3046875,9.5,[0. 0. 0. 0. 0. 0. 0. 0. 0.]
1742666902578543204,1742666902,571012426,imu_link,-0.03759765625,0.09747314453125,0.27667236328125,0.95526123046875,[0. 0. 0. 0. 0. 0. 0. 0. 0.],0.005859375,0.00390625,0.037109375,[0. 0. 0. 0. 0. 0. 0. 0. 0.],-2.0703125,-0.3046875,9.5,[0. 0. 0. 0. 0. 0. 0. 0. 0.]
1742666902604980296,1742666902,591075815,imu_link,-0.03778076171875,0.0975341796875,0.27752685546875,0.95501708984375,[0. 0. 0. 0. 0. 0. 0. 0. 0.],0.005859375,0.00390625,0.037109375,[0. 0. 0. 0. 0. 0. 0. 0. 0.],-2.10546875,-0.26953125,9.58203125,[0. 0. 0. 0. 0. 0. 0. 0. 0.]
1742666902614583389,1742666902,611070889,imu_link,-0.03778076171875,0.0975341796875,0.27752685546875,0.95501708984375,[0. 0. 0. 0. 0. 0. 0. 0. 0.],0.005859375,0.00390625,0.037109375,[0. 0. 0. 0. 0. 0. 0. 0. 0.],-2.10546875,-0.26953125,9.58203125,[0. 0. 0. 0. 0. 0. 0. 0. 0.]
1742666902655683093,1742666902,631091222,imu_link,-0.0379638671875,0.09747314453125,0.27825927734375,0.95477294921875,[0. 0. 0. 0. 0. 0. 0. 0. 0.],-0.005859375,-0.001953125,0.03125,[0. 0. 0. 0. 0. 0. 0. 0. 0.],-2.10546875,-0.26953125,9.54296875,[0. 0. 0. 0. 0. 0. 0. 0. 0.]
1742666902659572926,1742666902,657844019,imu_link,-0.0379638671875,0.09747314453125,0.27825927734375,0.95477294921875,[0. 0. 0. 0. 0. 0. 0. 0. 0.],-0.005859375,-0.001953125,0.03125,[0. 0. 0. 0. 0. 0. 0. 0. 0.],-2.0703125,-0.26953125,9.54296875,[0. 0. 0. 0. 0. 0. 0. 0. 0.]
1742666902677622648,1742666902,671031426,imu_link,-0.0379638671875,0.09747314453125,0.27825927734375,0.95477294921875,[0. 0. 0. 0. 0. 0. 0. 0. 0.],-0.001953125,0.001953125,0.025390625,[0. 0. 0. 0. 0. 0. 0. 0. 0.],-2.0703125,-0.26953125,9.54296875,[0. 0. 0. 0. 0. 0. 0. 0. 0.]
1742666902706345593,1742666902,691014445,imu_link,-0.03814697265625,0.097412109375,0.27880859375,0.95465087890625,[0. 0. 0. 0. 0. 0. 0. 0. 0.],-0.001953125,0.001953125,0.025390625,[0. 0. 0. 0. 0. 0. 0. 0. 0.],-1.9921875,-0.26953125,9.578125,[0. 0. 0. 0. 0. 0. 0. 0. 0.]
1742666902718565148,1742666902,711020037,imu_link,-0.03814697265625,0.097412109375,0.27880859375,0.95465087890625,[0. 0. 0. 0. 0. 0. 0. 0. 0.],-0.001953125,0.001953125,0.025390625,[0. 0. 0. 0. 0. 0. 0. 0. 0.],-1.9921875,-0.26953125,9.578125,[0. 0. 0. 0. 0. 0. 0. 0. 0.]
1742666902734779611,1742666902,731020204,imu_link,-0.03814697265625,0.097412109375,0.27880859375,0.95465087890625,[0. 0. 0. 0. 0. 0. 0. 0. 0.],-0.005859375,0.001953125,0.02734375,[0. 0. 0. 0. 0. 0. 0. 0. 0.],-1.953125,-0.3046875,9.609375,[0. 0. 0. 0. 0. 0. 0. 0. 0.]
1742666902765187593,1742666902,751126093,imu_link,-0.038330078125,0.097412109375,0.2794189453125,0.9544677734375,[0. 0. 0. 0. 0. 0. 0. 0. 0.],-0.005859375,0.001953125,0.02734375,[0. 0. 0. 0. 0. 0. 0. 0. 0.],-1.9921875,-0.3046875,9.58203125,[0. 0. 0. 0. 0. 0. 0. 0. 0.]
1742666902777787444,1742666902,771106056,imu_link,-0.038330078125,0.097412109375,0.2794189453125,0.9544677734375,[0. 0. 0. 0. 0. 0. 0. 0. 0.],-0.001953125,0.001953125,0.025390625,[0. 0. 0. 0. 0. 0. 0. 0. 0.],-1.9921875,-0.3046875,9.58203125,[0. 0. 0. 0. 0. 0. 0. 0. 0.]
1742666902804418019,1742666902,791023352,imu_link,-0.0384521484375,0.097412109375,0.28009033203125,0.9542236328125,[0. 0. 0. 0. 0. 0. 0. 0. 0.],-0.001953125,0.001953125,0.025390625,[0. 0. 0. 0. 0. 0. 0. 0. 0.],-1.9921875,-0.3046875,9.54296875,[0. 0. 0. 0. 0. 0. 0. 0. 0.]
1742666902818347741,1742666902,811042037,imu_link,-0.0384521484375,0.097412109375,0.28009033203125,0.9542236328125,[0. 0. 0. 0. 0. 0. 0. 0. 0.],-0.001953125,0.001953125,0.025390625,[0. 0. 0. 0. 0. 0. 0. 0. 0.],-2.03125,-0.26953125,9.578125,[0. 0. 0. 0. 0. 0. 0. 0. 0.]
1742666902834484926,1742666902,831048963,imu_link,-0.0384521484375,0.097412109375,0.28009033203125,0.9542236328125,[0. 0. 0. 0. 0. 0. 0. 0. 0.],0.00390625,0.001953125,0.029296875,[0. 0. 0. 0. 0. 0. 0. 0. 0.],-2.03125,-0.26953125,9.578125,[0. 0. 0. 0. 0. 0. 0. 0. 0.]
1742666902865627000,1742666902,851133593,imu_link,-0.03857421875,0.09735107421875,0.28070068359375,0.95404052734375,[0. 0. 0. 0. 0. 0. 0. 0. 0.],0.00390625,0.001953125,0.029296875,[0. 0. 0. 0. 0. 0. 0. 0. 0.],-2.0703125,-0.26953125,9.58203125,[0. 0. 0. 0. 0. 0. 0. 0. 0.]
1742666902883136074,1742666902,871024315,imu_link,-0.03857421875,0.09735107421875,0.28070068359375,0.95404052734375,[0. 0. 0. 0. 0. 0. 0. 0. 0.],0.00390625,0.001953125,0.021484375,[0. 0. 0. 0. 0. 0. 0. 0. 0.],-2.0703125,-0.23046875,9.578125,[0. 0. 0. 0. 0. 0. 0. 0. 0.]
1742666902908471796,1742666902,891026241,imu_link,-0.0386962890625,0.09735107421875,0.28118896484375,0.95391845703125,[0. 0. 0. 0. 0. 0. 0. 0. 0.],0.00390625,0.001953125,0.021484375,[0. 0. 0. 0. 0. 0. 0. 0. 0.],-2.0703125,-0.23046875,9.578125,[0. 0. 0. 0. 0. 0. 0. 0. 0.]
1742666902914569815,1742666902,911032296,imu_link,-0.0386962890625,0.09735107421875,0.28118896484375,0.95391845703125,[0. 0. 0. 0. 0. 0. 0. 0. 0.],0.00390625,0.001953125,0.021484375,[0. 0. 0. 0. 0. 0. 0. 0. 0.],-1.953125,-0.26953125,9.5390625,[0. 0. 0. 0. 0. 0. 0. 0. 0.]
1742666902951534722,1742666902,931066685,imu_link,-0.03887939453125,0.0972900390625,0.28167724609375,0.95379638671875,[0. 0. 0. 0. 0. 0. 0. 0. 0.],0.005859375,-0.001953125,0.0234375,[0. 0. 0. 0. 0. 0. 0. 0. 0.],-1.83984375,-0.34375,9.58203125,[0. 0. 0. 0. 0. 0. 0. 0. 0.]
1742666902956397759,1742666902,954205630,imu_link,-0.03887939453125,0.0972900390625,0.28167724609375,0.95379638671875,[0. 0. 0. 0. 0. 0. 0. 0. 0.],0.005859375,-0.001953125,0.0234375,[0. 0. 0. 0. 0. 0. 0. 0. 0.],-1.83984375,-0.34375,9.58203125,[0. 0. 0. 0. 0. 0. 0. 0. 0.]
1742666902982640222,1742666902,971026518,imu_link,-0.03887939453125,0.0972900390625,0.28167724609375,0.95379638671875,[0. 0. 0. 0. 0. 0. 0. 0. 0.],0.0,-0.00390625,0.021484375,[0. 0. 0. 0. 0. 0. 0. 0. 0.],-1.953125,-0.26953125,9.578125,[0. 0. 0. 0. 0. 0. 0. 0. 0.]
1742666903008184778,1742666902,991056407,imu_link,-0.03900146484375,0.09716796875,0.2822265625,0.95361328125,[0. 0. 0. 0. 0. 0. 0. 0. 0.],0.0,-0.00390625,0.021484375,[0. 0. 0. 0. 0. 0. 0. 0. 0.],-2.10546875,-0.26953125,9.58203125,[0. 0. 0. 0. 0. 0. 0. 0. 0.]
1742666903014588055,1742666903,11010315,imu_link,-0.03900146484375,0.09716796875,0.2822265625,0.95361328125,[0. 0. 0. 0. 0. 0. 0. 0. 0.],0.0,-0.00390625,0.021484375,[0. 0. 0. 0. 0. 0. 0. 0. 0.],-2.10546875,-0.26953125,9.58203125,[0. 0. 0. 0. 0. 0. 0. 0. 0.]
1742666903052074685,1742666903,31101555,imu_link,-0.03912353515625,0.09710693359375,0.28265380859375,0.9534912109375,[0. 0. 0. 0. 0. 0. 0. 0. 0.],-0.001953125,0.001953125,0.01953125,[0. 0. 0. 0. 0. 0. 0. 0. 0.],-2.10546875,-0.26953125,9.609375,[0. 0. 0. 0. 0. 0. 0. 0. 0.]
1742666903057033018,1742666903,54814963,imu_link,-0.03912353515625,0.09710693359375,0.28265380859375,0.9534912109375,[0. 0. 0. 0. 0. 0. 0. 0. 0.],-0.001953125,0.001953125,0.01953125,[0. 0. 0. 0. 0. 0. 0. 0. 0.],-2.10546875,-0.26953125,9.609375,[0. 0. 0. 0. 0. 0. 0. 0. 0.]
1742666903082243944,1742666903,71040018,imu_link,-0.03912353515625,0.09710693359375,0.28265380859375,0.9534912109375,[0. 0. 0. 0. 0. 0. 0. 0. 0.],-0.001953125,0.00390625,0.017578125,[0. 0. 0. 0. 0. 0. 0. 0. 0.],-2.14453125,-0.26953125,9.5390625,[0. 0. 0. 0. 0. 0. 0. 0. 0.]
1742666903104542518,1742666903,91222241,imu_link,-0.03924560546875,0.0970458984375,0.2830810546875,0.953369140625,[0. 0. 0. 0. 0. 0. 0. 0. 0.],-0.001953125,0.00390625,0.017578125,[0. 0. 0. 0. 0. 0. 0. 0. 0.],-2.0703125,-0.23046875,9.578125,[0. 0. 0. 0. 0. 0. 0. 0. 0.]
1742666903114467722,1742666903,111029426,imu_link,-0.03924560546875,0.0970458984375,0.2830810546875,0.953369140625,[0. 0. 0. 0. 0. 0. 0. 0. 0.],-0.001953125,0.00390625,0.017578125,[0. 0. 0. 0. 0. 0. 0. 0. 0.],-2.0703125,-0.23046875,9.578125,[0. 0. 0. 0. 0. 0. 0. 0. 0.]
1742666903152023629,1742666903,131112166,imu_link,-0.03936767578125,0.09698486328125,0.28326416015625,0.95330810546875,[0. 0. 0. 0. 0. 0. 0. 0. 0.],-0.00390625,-0.001953125,0.009765625,[0. 0. 0. 0. 0. 0. 0. 0. 0.],-1.953125,-0.26953125,9.578125,[0. 0. 0. 0. 0. 0. 0. 0. 0.]
1742666903156418166,1742666903,154677703,imu_link,-0.03936767578125,0.09698486328125,0.28326416015625,0.95330810546875,[0. 0. 0. 0. 0. 0. 0. 0. 0.],-0.00390625,-0.001953125,0.009765625,[0. 0. 0. 0. 0. 0. 0. 0. 0.],-1.953125,-0.26953125,9.578125,[0. 0. 0. 0. 0. 0. 0. 0. 0.]
1742666903178096037,1742666903,171051203,imu_link,-0.03936767578125,0.09698486328125,0.28326416015625,0.95330810546875,[0. 0. 0. 0. 0. 0. 0. 0. 0.],0.005859375,-0.00390625,0.015625,[0. 0. 0. 0. 0. 0. 0. 0. 0.],-1.9921875,-0.3046875,9.58203125,[0. 0. 0. 0. 0. 0. 0. 0. 0.]
1742666903205389203,1742666903,191039629,imu_link,-0.0394287109375,0.09698486328125,0.2835693359375,0.95318603515625,[0. 0. 0. 0. 0. 0. 0. 0. 0.],0.005859375,-0.00390625,0.015625,[0. 0. 0. 0. 0. 0. 0. 0. 0.],-2.03125,-0.23046875,9.54296875,[0. 0. 0. 0. 0. 0. 0. 0. 0.]
1742666903214560852,1742666903,211038833,imu_link,-0.0394287109375,0.09698486328125,0.2835693359375,0.95318603515625,[0. 0. 0. 0. 0. 0. 0. 0. 0.],0.005859375,-0.00390625,0.015625,[0. 0. 0. 0. 0. 0. 0. 0. 0.],-2.03125,-0.23046875,9.54296875,[0. 0. 0. 0. 0. 0. 0. 0. 0.]
1742666903255889703,1742666903,231105018,imu_link,-0.03955078125,0.09686279296875,0.28363037109375,0.95318603515625,[0. 0. 0. 0. 0. 0. 0. 0. 0.],0.001953125,-0.001953125,0.0,[0. 0. 0. 0. 0. 0. 0. 0. 0.],-2.03125,-0.26953125,9.578125,[0. 0. 0. 0. 0. 0. 0. 0. 0.]
1742666903261444222,1742666903,257888833,imu_link,-0.03955078125,0.09686279296875,0.28363037109375,0.95318603515625,[0. 0. 0. 0. 0. 0. 0. 0. 0.],0.001953125,-0.001953125,0.0,[0. 0. 0. 0. 0. 0. 0. 0. 0.],-2.03125,-0.23046875,9.58203125,[0. 0. 0. 0. 0. 0. 0. 0. 0.]
1742666903277822370,1742666903,271201592,imu_link,-0.03955078125,0.09686279296875,0.28363037109375,0.95318603515625,[0. 0. 0. 0. 0. 0. 0. 0. 0.],0.0,0.001953125,0.0078125,[0. 0. 0. 0. 0. 0. 0. 0. 0.],-2.03125,-0.23046875,9.58203125,[0. 0. 0. 0. 0. 0. 0. 0. 0.]
1742666903305201370,1742666903,291123018,imu_link,-0.0396728515625,0.0968017578125,0.28375244140625,0.95318603515625,[0. 0. 0. 0. 0. 0. 0. 0. 0.],0.0,0.001953125,0.0078125,[0. 0. 0. 0. 0. 0. 0. 0. 0.],-2.03125,-0.26953125,9.5390625,[0. 0. 0. 0. 0. 0. 0. 0. 0.]
1742666903317108092,1742666903,311193518,imu_link,-0.0396728515625,0.0968017578125,0.28375244140625,0.95318603515625,[0. 0. 0. 0. 0. 0. 0. 0. 0.],0.0,0.001953125,0.0078125,[0. 0. 0. 0. 0. 0. 0. 0. 0.],-2.03125,-0.26953125,9.5390625,[0. 0. 0. 0. 0. 0. 0. 0. 0.]
1742666903334479537,1742666903,331022000,imu_link,-0.0396728515625,0.0968017578125,0.28375244140625,0.95318603515625,[0. 0. 0. 0. 0. 0. 0. 0. 0.],0.00390625,0.001953125,0.0,[0. 0. 0. 0. 0. 0. 0. 0. 0.],-1.9921875,-0.3046875,9.58203125,[0. 0. 0. 0. 0. 0. 0. 0. 0.]
1742666903365213463,1742666903,351135592,imu_link,-0.039794921875,0.09674072265625,0.28369140625,0.95318603515625,[0. 0. 0. 0. 0. 0. 0. 0. 0.],0.00390625,0.001953125,0.0,[0. 0. 0. 0. 0. 0. 0. 0. 0.],-1.953125,-0.3046875,9.6484375,[0. 0. 0. 0. 0. 0. 0. 0. 0.]
1742666903377997074,1742666903,371013889,imu_link,-0.039794921875,0.09674072265625,0.28369140625,0.95318603515625,[0. 0. 0. 0. 0. 0. 0. 0. 0.],-0.001953125,0.005859375,0.009765625,[0. 0. 0. 0. 0. 0. 0. 0. 0.],-1.953125,-0.3046875,9.6484375,[0. 0. 0. 0. 0. 0. 0. 0. 0.]
1742666903404133722,1742666903,391069870,imu_link,-0.0399169921875,0.09674072265625,0.2838134765625,0.953125,[0. 0. 0. 0. 0. 0. 0. 0. 0.],-0.001953125,0.005859375,0.009765625,[0. 0. 0. 0. 0. 0. 0. 0. 0.],-1.953125,-0.3046875,9.6484375,[0. 0. 0. 0. 0. 0. 0. 0. 0.]
1742666903422844203,1742666903,411103333,imu_link,-0.0399169921875,0.09674072265625,0.2838134765625,0.953125,[0. 0. 0. 0. 0. 0. 0. 0. 0.],0.0,0.001953125,-0.005859375,[0. 0. 0. 0. 0. 0. 0. 0. 0.],-1.953125,-0.23046875,9.58203125,[0. 0. 0. 0. 0. 0. 0. 0. 0.]
1742666903434469074,1742666903,431043611,imu_link,-0.0399169921875,0.09674072265625,0.2838134765625,0.953125,[0. 0. 0. 0. 0. 0. 0. 0. 0.],0.0,0.001953125,-0.005859375,[0. 0. 0. 0. 0. 0. 0. 0. 0.],-1.953125,-0.23046875,9.58203125,[0. 0. 0. 0. 0. 0. 0. 0. 0.]
1742666903465273574,1742666903,451223166,imu_link,-0.0400390625,0.0966796875,0.28375244140625,0.95318603515625,[0. 0. 0. 0. 0. 0. 0. 0. 0.],0.0,0.001953125,-0.005859375,[0. 0. 0. 0. 0. 0. 0. 0. 0.],-1.9921875,-0.26953125,9.578125,[0. 0. 0. 0. 0. 0. 0. 0. 0.]
1742666903482755240,1742666903,471015277,imu_link,-0.0400390625,0.0966796875,0.28375244140625,0.95318603515625,[0. 0. 0. 0. 0. 0. 0. 0. 0.],0.00390625,0.0,0.005859375,[0. 0. 0. 0. 0. 0. 0. 0. 0.],-2.0703125,-0.3046875,9.5390625,[0. 0. 0. 0. 0. 0. 0. 0. 0.]
1742666903503020592,1742666903,491128481,imu_link,-0.0401611328125,0.0965576171875,0.2838134765625,0.95318603515625,[0. 0. 0. 0. 0. 0. 0. 0. 0.],0.00390625,0.0,0.005859375,[0. 0. 0. 0. 0. 0. 0. 0. 0.],-2.0703125,-0.3046875,9.5390625,[0. 0. 0. 0. 0. 0. 0. 0. 0.]
1742666903514433648,1742666903,511027426,imu_link,-0.0401611328125,0.0965576171875,0.2838134765625,0.95318603515625,[0. 0. 0. 0. 0. 0. 0. 0. 0.],0.00390625,0.0,0.005859375,[0. 0. 0. 0. 0. 0. 0. 0. 0.],-2.18359375,-0.3046875,9.609375,[0. 0. 0. 0. 0. 0. 0. 0. 0.]
1742666903551402407,1742666903,531128685,imu_link,-0.040283203125,0.09649658203125,0.2838134765625,0.95318603515625,[0. 0. 0. 0. 0. 0. 0. 0. 0.],0.01171875,-0.001953125,0.0,[0. 0. 0. 0. 0. 0. 0. 0. 0.],-2.14453125,-0.3828125,9.5390625,[0. 0. 0. 0. 0. 0. 0. 0. 0.]
1742666903555997055,1742666903,554109166,imu_link,-0.040283203125,0.09649658203125,0.2838134765625,0.95318603515625,[0. 0. 0. 0. 0. 0. 0. 0. 0.],0.01171875,-0.001953125,0.0,[0. 0. 0. 0. 0. 0. 0. 0. 0.],-2.14453125,-0.3828125,9.5390625,[0. 0. 0. 0. 0. 0. 0. 0. 0.]
1742666903582436592,1742666903,571043092,imu_link,-0.040283203125,0.09649658203125,0.2838134765625,0.95318603515625,[0. 0. 0. 0. 0. 0. 0. 0. 0.],0.017578125,-0.001953125,0.013671875,[0. 0. 0. 0. 0. 0. 0. 0. 0.],-2.03125,-0.34375,9.5390625,[0. 0. 0. 0. 0. 0. 0. 0. 0.]
1742666903607576888,1742666903,591134037,imu_link,-0.04022216796875,0.096435546875,0.28399658203125,0.953125,[0. 0. 0. 0. 0. 0. 0. 0. 0.],0.017578125,-0.001953125,0.013671875,[0. 0. 0. 0. 0. 0. 0. 0. 0.],-1.9921875,-0.23046875,9.609375,[0. 0. 0. 0. 0. 0. 0. 0. 0.]
1742666903614611240,1742666903,611016314,imu_link,-0.04022216796875,0.096435546875,0.28399658203125,0.953125,[0. 0. 0. 0. 0. 0. 0. 0. 0.],0.017578125,-0.001953125,0.013671875,[0. 0. 0. 0. 0. 0. 0. 0. 0.],-1.9921875,-0.23046875,9.609375,[0. 0. 0. 0. 0. 0. 0. 0. 0.]
1742666903652050611,1742666903,631121444,imu_link,-0.04034423828125,0.09637451171875,0.2840576171875,0.953125,[0. 0. 0. 0. 0. 0. 0. 0. 0.],0.0078125,0.0,0.00390625,[0. 0. 0. 0. 0. 0. 0. 0. 0.],-1.953125,-0.26953125,9.578125,[0. 0. 0. 0. 0. 0. 0. 0. 0.]
1742666903656539611,1742666903,654775148,imu_link,-0.04034423828125,0.09637451171875,0.2840576171875,0.953125,[0. 0. 0. 0. 0. 0. 0. 0. 0.],0.0078125,0.0,0.00390625,[0. 0. 0. 0. 0. 0. 0. 0. 0.],-1.953125,-0.26953125,9.578125,[0. 0. 0. 0. 0. 0. 0. 0. 0.]
1742666903682565370,1742666903,671078907,imu_link,-0.04034423828125,0.09637451171875,0.2840576171875,0.953125,[0. 0. 0. 0. 0. 0. 0. 0. 0.],0.00390625,0.0,0.005859375,[0. 0. 0. 0. 0. 0. 0. 0. 0.],-1.953125,-0.26953125,9.5390625,[0. 0. 0. 0. 0. 0. 0. 0. 0.]
1742666903704181518,1742666903,691115722,imu_link,-0.0404052734375,0.0963134765625,0.28411865234375,0.95306396484375,[0. 0. 0. 0. 0. 0. 0. 0. 0.],0.00390625,0.0,0.005859375,[0. 0. 0. 0. 0. 0. 0. 0. 0.],-2.03125,-0.23046875,9.609375,[0. 0. 0. 0. 0. 0. 0. 0. 0.]
1742666903714489796,1742666903,711046759,imu_link,-0.0404052734375,0.0963134765625,0.28411865234375,0.95306396484375,[0. 0. 0. 0. 0. 0. 0. 0. 0.],0.00390625,0.0,0.005859375,[0. 0. 0. 0. 0. 0. 0. 0. 0.],-2.03125,-0.23046875,9.609375,[0. 0. 0. 0. 0. 0. 0. 0. 0.]
1742666903752955388,1742666903,731093092,imu_link,-0.04058837890625,0.09619140625,0.28411865234375,0.95306396484375,[0. 0. 0. 0. 0. 0. 0. 0. 0.],-0.00390625,-0.001953125,0.0,[0. 0. 0. 0. 0. 0. 0. 0. 0.],-2.03125,-0.26953125,9.5390625,[0. 0. 0. 0. 0. 0. 0. 0. 0.]
1742666903756978166,1742666903,755163444,imu_link,-0.04058837890625,0.09619140625,0.28411865234375,0.95306396484375,[0. 0. 0. 0. 0. 0. 0. 0. 0.],-0.00390625,-0.001953125,0.0,[0. 0. 0. 0. 0. 0. 0. 0. 0.],-2.03125,-0.26953125,9.5390625,[0. 0. 0. 0. 0. 0. 0. 0. 0.]
1742666903777994018,1742666903,771137407,imu_link,-0.04058837890625,0.09619140625,0.28411865234375,0.95306396484375,[0. 0. 0. 0. 0. 0. 0. 0. 0.],-0.01171875,-0.001953125,0.0078125,[0. 0. 0. 0. 0. 0. 0. 0. 0.],-2.03125,-0.34375,9.61328125,[0. 0. 0. 0. 0. 0. 0. 0. 0.]
1742666903804595573,1742666903,791137166,imu_link,-0.040771484375,0.09613037109375,0.2843017578125,0.95306396484375,[0. 0. 0. 0. 0. 0. 0. 0. 0.],-0.01171875,-0.001953125,0.0078125,[0. 0. 0. 0. 0. 0. 0. 0. 0.],-2.03125,-0.3046875,9.54296875,[0. 0. 0. 0. 0. 0. 0. 0. 0.]
1742666903814522648,1742666903,811072351,imu_link,-0.040771484375,0.09613037109375,0.2843017578125,0.95306396484375,[0. 0. 0. 0. 0. 0. 0. 0. 0.],-0.01171875,-0.001953125,0.0078125,[0. 0. 0. 0. 0. 0. 0. 0. 0.],-2.03125,-0.3046875,9.54296875,[0. 0. 0. 0. 0. 0. 0. 0. 0.]
1742666903855992388,1742666903,831052555,imu_link,-0.04095458984375,0.0960693359375,0.2843017578125,0.9530029296875,[0. 0. 0. 0. 0. 0. 0. 0. 0.],-0.0078125,0.001953125,-0.001953125,[0. 0. 0. 0. 0. 0. 0. 0. 0.],-1.9921875,-0.19140625,9.6484375,[0. 0. 0. 0. 0. 0. 0. 0. 0.]
1742666903861104685,1742666903,857761944,imu_link,-0.04095458984375,0.0960693359375,0.2843017578125,0.9530029296875,[0. 0. 0. 0. 0. 0. 0. 0. 0.],-0.0078125,0.001953125,-0.001953125,[0. 0. 0. 0. 0. 0. 0. 0. 0.],-1.9921875,-0.23046875,9.50390625,[0. 0. 0. 0. 0. 0. 0. 0. 0.]
1742666903876859703,1742666903,871000092,imu_link,-0.04095458984375,0.0960693359375,0.2843017578125,0.9530029296875,[0. 0. 0. 0. 0. 0. 0. 0. 0.],-0.005859375,-0.00390625,0.0,[0. 0. 0. 0. 0. 0. 0. 0. 0.],-1.9921875,-0.23046875,9.50390625,[0. 0. 0. 0. 0. 0. 0. 0. 0.]
1742666903904397796,1742666903,891120370,imu_link,-0.041015625,0.09600830078125,0.2843017578125,0.9530029296875,[0. 0. 0. 0. 0. 0. 0. 0. 0.],-0.005859375,-0.00390625,0.0,[0. 0. 0. 0. 0. 0. 0. 0. 0.],-1.9921875,-0.23046875,9.54296875,[0. 0. 0. 0. 0. 0. 0. 0. 0.]
1742666903920018870,1742666903,911030703,imu_link,-0.041015625,0.09600830078125,0.2843017578125,0.9530029296875,[0. 0. 0. 0. 0. 0. 0. 0. 0.],-0.005859375,-0.00390625,0.0,[0. 0. 0. 0. 0. 0. 0. 0. 0.],-1.9921875,-0.23046875,9.54296875,[0. 0. 0. 0. 0. 0. 0. 0. 0.]
1742666903933906333,1742666903,931035240,imu_link,-0.041015625,0.09600830078125,0.2843017578125,0.9530029296875,[0. 0. 0. 0. 0. 0. 0. 0. 0.],-0.0078125,-0.00390625,-0.0078125,[0. 0. 0. 0. 0. 0. 0. 0. 0.],-2.03125,-0.26953125,9.61328125,[0. 0. 0. 0. 0. 0. 0. 0. 0.]
1742666903964615314,1742666903,951164147,imu_link,-0.04119873046875,0.09588623046875,0.28411865234375,0.95306396484375,[0. 0. 0. 0. 0. 0. 0. 0. 0.],-0.0078125,-0.00390625,-0.0078125,[0. 0. 0. 0. 0. 0. 0. 0. 0.],-2.0703125,-0.34375,9.58203125,[0. 0. 0. 0. 0. 0. 0. 0. 0.]
1742666903976818925,1742666903,971004277,imu_link,-0.04119873046875,0.09588623046875,0.28411865234375,0.95306396484375,[0. 0. 0. 0. 0. 0. 0. 0. 0.],-0.005859375,0.0,-0.001953125,[0. 0. 0. 0. 0. 0. 0. 0. 0.],-2.0703125,-0.34375,9.58203125,[0. 0. 0. 0. 0. 0. 0. 0. 0.]
1742666904004218592,1742666903,991125259,imu_link,-0.04132080078125,0.0958251953125,0.2840576171875,0.953125,[0. 0. 0. 0. 0. 0. 0. 0. 0.],-0.005859375,0.0,-0.001953125,[0. 0. 0. 0. 0. 0. 0. 0. 0.],-2.0703125,-0.3828125,9.54296875,[0. 0. 0. 0. 0. 0. 0. 0. 0.]
1742666904021939944,1742666904,11063925,imu_link,-0.04132080078125,0.0958251953125,0.2840576171875,0.953125,[0. 0. 0. 0. 0. 0. 0. 0. 0.],0.001953125,-0.001953125,0.001953125,[0. 0. 0. 0. 0. 0. 0. 0. 0.],-2.03125,-0.26953125,9.578125,[0. 0. 0. 0. 0. 0. 0. 0. 0.]
1742666904033849777,1742666904,31015407,imu_link,-0.04132080078125,0.0958251953125,0.2840576171875,0.953125,[0. 0. 0. 0. 0. 0. 0. 0. 0.],0.001953125,-0.001953125,0.001953125,[0. 0. 0. 0. 0. 0. 0. 0. 0.],-2.03125,-0.26953125,9.578125,[0. 0. 0. 0. 0. 0. 0. 0. 0.]
1742666904064700259,1742666904,51139647,imu_link,-0.04132080078125,0.09588623046875,0.28411865234375,0.95306396484375,[0. 0. 0. 0. 0. 0. 0. 0. 0.],0.001953125,-0.001953125,0.001953125,[0. 0. 0. 0. 0. 0. 0. 0. 0.],-2.03125,-0.15234375,9.578125,[0. 0. 0. 0. 0. 0. 0. 0. 0.]
