timestamp,header.stamp.sec,header.stamp.nanosec,header.frame_id,orientation.x,orientation.y,orientation.z,orientation.w,orientation_covariance,angular_velocity.x,angular_velocity.y,angular_velocity.z,angular_velocity_covariance,linear_acceleration.x,linear_acceleration.y,linear_acceleration.z,linear_acceleration_covariance
1742665774856534265,1742665774,843167506,imu_link,-0.01556396484375,0.09820556640625,-0.00115966796875,0.99505615234375,[0. 0. 0. 0. 0. 0. 0. 0. 0.],0.0,0.0,0.0,[0. 0. 0. 0. 0. 0. 0. 0. 0.],-1.9140625,-0.3046875,9.58203125,[0. 0. 0. 0. 0. 0. 0. 0. 0.]
1742665774879699246,1742665774,862109061,imu_link,-0.01556396484375,0.09820556640625,-0.00115966796875,0.99505615234375,[0. 0. 0. 0. 0. 0. 0. 0. 0.],0.0,0.0,0.0,[0. 0. 0. 0. 0. 0. 0. 0. 0.],-1.9140625,-0.3046875,9.58203125,[0. 0. 0. 0. 0. 0. 0. 0. 0.]
1742665774886035376,1742665774,882668487,imu_link,-0.01556396484375,0.09820556640625,-0.00115966796875,0.99505615234375,[0. 0. 0. 0. 0. 0. 0. 0. 0.],0.0,0.0,0.0,[0. 0. 0. 0. 0. 0. 0. 0. 0.],-1.9140625,-0.3046875,9.58203125,[0. 0. 0. 0. 0. 0. 0. 0. 0.]
1742665774924696024,1742665774,902187524,imu_link,-0.01556396484375,0.09820556640625,-0.00115966796875,0.99505615234375,[0. 0. 0. 0. 0. 0. 0. 0. 0.],0.0,0.0,0.0,[0. 0. 0. 0. 0. 0. 0. 0. 0.],-1.9140625,-0.3046875,9.58203125,[0. 0. 0. 0. 0. 0. 0. 0. 0.]
1742665774929273117,1742665774,927353746,imu_link,-0.01556396484375,0.09820556640625,-0.00115966796875,0.99505615234375,[0. 0. 0. 0. 0. 0. 0. 0. 0.],0.0,0.0,0.0,[0. 0. 0. 0. 0. 0. 0. 0. 0.],-1.9140625,-0.3046875,9.58203125,[0. 0. 0. 0. 0. 0. 0. 0. 0.]
1742665774953542339,1742665774,942349876,imu_link,-0.01556396484375,0.09820556640625,-0.00115966796875,0.99505615234375,[0. 0. 0. 0. 0. 0. 0. 0. 0.],0.0,0.0,0.0,[0. 0. 0. 0. 0. 0. 0. 0. 0.],-1.9140625,-0.3046875,9.58203125,[0. 0. 0. 0. 0. 0. 0. 0. 0.]
1742665774977259950,1742665774,962302357,imu_link,-0.01556396484375,0.09820556640625,-0.00115966796875,0.99505615234375,[0. 0. 0. 0. 0. 0. 0. 0. 0.],0.0,0.0,0.0,[0. 0. 0. 0. 0. 0. 0. 0. 0.],-1.9140625,-0.3046875,9.58203125,[0. 0. 0. 0. 0. 0. 0. 0. 0.]
1742665774985393487,1742665774,982054709,imu_link,-0.01556396484375,0.09820556640625,-0.00115966796875,0.99505615234375,[0. 0. 0. 0. 0. 0. 0. 0. 0.],0.0,0.0,0.0,[0. 0. 0. 0. 0. 0. 0. 0. 0.],-1.9140625,-0.3046875,9.58203125,[0. 0. 0. 0. 0. 0. 0. 0. 0.]
1742665775023911265,1742665775,2143283,imu_link,-0.01556396484375,0.09820556640625,-0.00115966796875,0.99505615234375,[0. 0. 0. 0. 0. 0. 0. 0. 0.],0.0,0.0,0.0,[0. 0. 0. 0. 0. 0. 0. 0. 0.],-1.9140625,-0.3046875,9.58203125,[0. 0. 0. 0. 0. 0. 0. 0. 0.]
1742665775033331561,1742665775,30385006,imu_link,-0.01556396484375,0.09820556640625,-0.00115966796875,0.99505615234375,[0. 0. 0. 0. 0. 0. 0. 0. 0.],0.0,0.0,0.0,[0. 0. 0. 0. 0. 0. 0. 0. 0.],-1.9140625,-0.3046875,9.58203125,[0. 0. 0. 0. 0. 0. 0. 0. 0.]
1742665775049305968,1742665775,42059024,imu_link,-0.01556396484375,0.09820556640625,-0.00115966796875,0.99505615234375,[0. 0. 0. 0. 0. 0. 0. 0. 0.],0.0,0.0,0.0,[0. 0. 0. 0. 0. 0. 0. 0. 0.],-1.9140625,-0.3046875,9.58203125,[0. 0. 0. 0. 0. 0. 0. 0. 0.]
1742665775076541598,1742665775,62204320,imu_link,-0.01556396484375,0.09820556640625,-0.00115966796875,0.99505615234375,[0. 0. 0. 0. 0. 0. 0. 0. 0.],0.0,0.0,0.0,[0. 0. 0. 0. 0. 0. 0. 0. 0.],-1.9140625,-0.3046875,9.58203125,[0. 0. 0. 0. 0. 0. 0. 0. 0.]
1742665775085678987,1742665775,82214598,imu_link,-0.01556396484375,0.09820556640625,-0.00115966796875,0.99505615234375,[0. 0. 0. 0. 0. 0. 0. 0. 0.],0.0,0.0,0.0,[0. 0. 0. 0. 0. 0. 0. 0. 0.],-1.9140625,-0.3046875,9.58203125,[0. 0. 0. 0. 0. 0. 0. 0. 0.]
1742665775121819987,1742665775,102127765,imu_link,-0.01556396484375,0.09820556640625,-0.00115966796875,0.99505615234375,[0. 0. 0. 0. 0. 0. 0. 0. 0.],0.0,0.0,0.0,[0. 0. 0. 0. 0. 0. 0. 0. 0.],-1.9140625,-0.3046875,9.58203125,[0. 0. 0. 0. 0. 0. 0. 0. 0.]
1742665775130408209,1742665775,128623543,imu_link,-0.01556396484375,0.09820556640625,-0.00115966796875,0.99505615234375,[0. 0. 0. 0. 0. 0. 0. 0. 0.],0.0,0.0,0.0,[0. 0. 0. 0. 0. 0. 0. 0. 0.],-1.9140625,-0.3046875,9.58203125,[0. 0. 0. 0. 0. 0. 0. 0. 0.]
1742665775150199580,1742665775,143162894,imu_link,-0.01556396484375,0.09820556640625,-0.00115966796875,0.99505615234375,[0. 0. 0. 0. 0. 0. 0. 0. 0.],0.0,0.0,0.0,[0. 0. 0. 0. 0. 0. 0. 0. 0.],-1.9140625,-0.3046875,9.58203125,[0. 0. 0. 0. 0. 0. 0. 0. 0.]
1742665775175494135,1742665775,162222894,imu_link,-0.01556396484375,0.09820556640625,-0.00115966796875,0.99505615234375,[0. 0. 0. 0. 0. 0. 0. 0. 0.],0.0,0.0,0.0,[0. 0. 0. 0. 0. 0. 0. 0. 0.],-1.9140625,-0.3046875,9.58203125,[0. 0. 0. 0. 0. 0. 0. 0. 0.]
1742665775189030783,1742665775,182063302,imu_link,-0.01556396484375,0.09820556640625,-0.00115966796875,0.99505615234375,[0. 0. 0. 0. 0. 0. 0. 0. 0.],0.0,0.0,0.0,[0. 0. 0. 0. 0. 0. 0. 0. 0.],-1.9140625,-0.3046875,9.58203125,[0. 0. 0. 0. 0. 0. 0. 0. 0.]
1742665775205510987,1742665775,202093394,imu_link,-0.01556396484375,0.09820556640625,-0.00115966796875,0.99505615234375,[0. 0. 0. 0. 0. 0. 0. 0. 0.],0.0,0.0,0.0,[0. 0. 0. 0. 0. 0. 0. 0. 0.],-1.87890625,-0.3046875,9.5390625,[0. 0. 0. 0. 0. 0. 0. 0. 0.]
1742665775236389246,1742665775,222327598,imu_link,-0.01556396484375,0.09820556640625,-0.00115966796875,0.99505615234375,[0. 0. 0. 0. 0. 0. 0. 0. 0.],0.0,0.0,0.0,[0. 0. 0. 0. 0. 0. 0. 0. 0.],-1.9140625,-0.3046875,9.58203125,[0. 0. 0. 0. 0. 0. 0. 0. 0.]
1742665775253905172,1742665775,242367357,imu_link,-0.01556396484375,0.09820556640625,-0.00115966796875,0.99505615234375,[0. 0. 0. 0. 0. 0. 0. 0. 0.],0.0,0.0,0.0,[0. 0. 0. 0. 0. 0. 0. 0. 0.],-1.9140625,-0.3046875,9.58203125,[0. 0. 0. 0. 0. 0. 0. 0. 0.]
1742665775275878468,1742665775,262759265,imu_link,-0.01556396484375,0.0982666015625,-0.00115966796875,0.99505615234375,[0. 0. 0. 0. 0. 0. 0. 0. 0.],0.0,0.0,0.0,[0. 0. 0. 0. 0. 0. 0. 0. 0.],-1.9140625,-0.3046875,9.58203125,[0. 0. 0. 0. 0. 0. 0. 0. 0.]
1742665775288774339,1742665775,282340728,imu_link,-0.01556396484375,0.0982666015625,-0.00115966796875,0.99505615234375,[0. 0. 0. 0. 0. 0. 0. 0. 0.],0.0,0.0,0.0,[0. 0. 0. 0. 0. 0. 0. 0. 0.],-1.87890625,-0.3046875,9.578125,[0. 0. 0. 0. 0. 0. 0. 0. 0.]
1742665775305671783,1742665775,302237802,imu_link,-0.01556396484375,0.0982666015625,-0.00115966796875,0.99505615234375,[0. 0. 0. 0. 0. 0. 0. 0. 0.],0.0,0.0,0.0,[0. 0. 0. 0. 0. 0. 0. 0. 0.],-1.87890625,-0.3046875,9.578125,[0. 0. 0. 0. 0. 0. 0. 0. 0.]
1742665775336152728,1742665775,322121283,imu_link,-0.01556396484375,0.0982666015625,-0.00115966796875,0.99505615234375,[0. 0. 0. 0. 0. 0. 0. 0. 0.],0.0,0.0,0.0,[0. 0. 0. 0. 0. 0. 0. 0. 0.],-1.9140625,-0.3046875,9.58203125,[0. 0. 0. 0. 0. 0. 0. 0. 0.]
1742665775354536431,1742665775,342068061,imu_link,-0.01556396484375,0.0982666015625,-0.00115966796875,0.99505615234375,[0. 0. 0. 0. 0. 0. 0. 0. 0.],0.0,0.0,0.0,[0. 0. 0. 0. 0. 0. 0. 0. 0.],-1.9140625,-0.3046875,9.58203125,[0. 0. 0. 0. 0. 0. 0. 0. 0.]
1742665775378640005,1742665775,362074542,imu_link,-0.01556396484375,0.09820556640625,-0.00115966796875,0.99505615234375,[0. 0. 0. 0. 0. 0. 0. 0. 0.],0.0,0.0,0.0,[0. 0. 0. 0. 0. 0. 0. 0. 0.],-1.9140625,-0.3046875,9.58203125,[0. 0. 0. 0. 0. 0. 0. 0. 0.]
1742665775385489450,1742665775,382050228,imu_link,-0.01556396484375,0.09820556640625,-0.00115966796875,0.99505615234375,[0. 0. 0. 0. 0. 0. 0. 0. 0.],0.0,0.0,0.0,[0. 0. 0. 0. 0. 0. 0. 0. 0.],-1.9140625,-0.3046875,9.58203125,[0. 0. 0. 0. 0. 0. 0. 0. 0.]
1742665775422455690,1742665775,402179987,imu_link,-0.01556396484375,0.09820556640625,-0.00115966796875,0.99505615234375,[0. 0. 0. 0. 0. 0. 0. 0. 0.],0.0,0.0,0.0,[0. 0. 0. 0. 0. 0. 0. 0. 0.],-1.9140625,-0.3046875,9.58203125,[0. 0. 0. 0. 0. 0. 0. 0. 0.]
1742665775427800265,1742665775,424976839,imu_link,-0.01556396484375,0.09820556640625,-0.00115966796875,0.99505615234375,[0. 0. 0. 0. 0. 0. 0. 0. 0.],0.0,0.0,0.0,[0. 0. 0. 0. 0. 0. 0. 0. 0.],-1.9140625,-0.3046875,9.58203125,[0. 0. 0. 0. 0. 0. 0. 0. 0.]
1742665775453923635,1742665775,442176228,imu_link,-0.01556396484375,0.09820556640625,-0.00115966796875,0.99505615234375,[0. 0. 0. 0. 0. 0. 0. 0. 0.],0.0,0.0,0.0,[0. 0. 0. 0. 0. 0. 0. 0. 0.],-1.9140625,-0.3046875,9.58203125,[0. 0. 0. 0. 0. 0. 0. 0. 0.]
1742665775477108765,1742665775,462100376,imu_link,-0.01556396484375,0.09820556640625,-0.00115966796875,0.99505615234375,[0. 0. 0. 0. 0. 0. 0. 0. 0.],0.0,0.0,0.0,[0. 0. 0. 0. 0. 0. 0. 0. 0.],-1.9140625,-0.3046875,9.609375,[0. 0. 0. 0. 0. 0. 0. 0. 0.]
1742665775485443802,1742665775,482058653,imu_link,-0.01556396484375,0.09820556640625,-0.00115966796875,0.99505615234375,[0. 0. 0. 0. 0. 0. 0. 0. 0.],0.0,0.0,0.0,[0. 0. 0. 0. 0. 0. 0. 0. 0.],-1.9140625,-0.3046875,9.609375,[0. 0. 0. 0. 0. 0. 0. 0. 0.]
1742665775522882172,1742665775,502164005,imu_link,-0.01556396484375,0.09820556640625,-0.00115966796875,0.99505615234375,[0. 0. 0. 0. 0. 0. 0. 0. 0.],0.0,0.0,0.0,[0. 0. 0. 0. 0. 0. 0. 0. 0.],-1.9140625,-0.3046875,9.58203125,[0. 0. 0. 0. 0. 0. 0. 0. 0.]
1742665775527679431,1742665775,525521302,imu_link,-0.01556396484375,0.09820556640625,-0.00115966796875,0.99505615234375,[0. 0. 0. 0. 0. 0. 0. 0. 0.],0.0,0.0,0.0,[0. 0. 0. 0. 0. 0. 0. 0. 0.],-1.9140625,-0.3046875,9.58203125,[0. 0. 0. 0. 0. 0. 0. 0. 0.]
1742665775554300598,1742665775,542397635,imu_link,-0.01556396484375,0.09820556640625,-0.00115966796875,0.99505615234375,[0. 0. 0. 0. 0. 0. 0. 0. 0.],0.0,0.0,0.0,[0. 0. 0. 0. 0. 0. 0. 0. 0.],-1.9140625,-0.3046875,9.58203125,[0. 0. 0. 0. 0. 0. 0. 0. 0.]
1742665775576512876,1742665775,562566061,imu_link,-0.01556396484375,0.09820556640625,-0.00115966796875,0.99505615234375,[0. 0. 0. 0. 0. 0. 0. 0. 0.],0.0,0.0,0.0,[0. 0. 0. 0. 0. 0. 0. 0. 0.],-1.9140625,-0.3046875,9.58203125,[0. 0. 0. 0. 0. 0. 0. 0. 0.]
1742665775586385450,1742665775,582841857,imu_link,-0.01556396484375,0.09820556640625,-0.00115966796875,0.99505615234375,[0. 0. 0. 0. 0. 0. 0. 0. 0.],0.0,0.0,0.0,[0. 0. 0. 0. 0. 0. 0. 0. 0.],-1.9140625,-0.3046875,9.58203125,[0. 0. 0. 0. 0. 0. 0. 0. 0.]
1742665775623329635,1742665775,602395413,imu_link,-0.01556396484375,0.09820556640625,-0.00115966796875,0.99505615234375,[0. 0. 0. 0. 0. 0. 0. 0. 0.],0.0,0.0,0.0,[0. 0. 0. 0. 0. 0. 0. 0. 0.],-1.9140625,-0.3046875,9.58203125,[0. 0. 0. 0. 0. 0. 0. 0. 0.]
1742665775632810209,1742665775,629091227,imu_link,-0.01556396484375,0.09820556640625,-0.00115966796875,0.99505615234375,[0. 0. 0. 0. 0. 0. 0. 0. 0.],0.0,0.0,0.0,[0. 0. 0. 0. 0. 0. 0. 0. 0.],-1.9140625,-0.3046875,9.58203125,[0. 0. 0. 0. 0. 0. 0. 0. 0.]
1742665775648954042,1742665775,642343635,imu_link,-0.01556396484375,0.09820556640625,-0.00115966796875,0.99505615234375,[0. 0. 0. 0. 0. 0. 0. 0. 0.],0.0,0.0,0.0,[0. 0. 0. 0. 0. 0. 0. 0. 0.],-1.9140625,-0.3046875,9.58203125,[0. 0. 0. 0. 0. 0. 0. 0. 0.]
1742665775676351838,1742665775,662479690,imu_link,-0.01556396484375,0.09820556640625,-0.00115966796875,0.99505615234375,[0. 0. 0. 0. 0. 0. 0. 0. 0.],0.0,0.0,0.0,[0. 0. 0. 0. 0. 0. 0. 0. 0.],-1.9140625,-0.3046875,9.58203125,[0. 0. 0. 0. 0. 0. 0. 0. 0.]
1742665775685739690,1742665775,682385616,imu_link,-0.01556396484375,0.09820556640625,-0.00115966796875,0.99505615234375,[0. 0. 0. 0. 0. 0. 0. 0. 0.],0.0,0.0,0.0,[0. 0. 0. 0. 0. 0. 0. 0. 0.],-1.9140625,-0.3046875,9.58203125,[0. 0. 0. 0. 0. 0. 0. 0. 0.]
1742665775726630598,1742665775,702177042,imu_link,-0.01556396484375,0.09820556640625,-0.00115966796875,0.99505615234375,[0. 0. 0. 0. 0. 0. 0. 0. 0.],0.0,0.0,0.0,[0. 0. 0. 0. 0. 0. 0. 0. 0.],-1.9140625,-0.3046875,9.58203125,[0. 0. 0. 0. 0. 0. 0. 0. 0.]
1742665775731322690,1742665775,728299172,imu_link,-0.01556396484375,0.09820556640625,-0.00115966796875,0.99505615234375,[0. 0. 0. 0. 0. 0. 0. 0. 0.],0.0,0.0,0.0,[0. 0. 0. 0. 0. 0. 0. 0. 0.],-1.87890625,-0.3046875,9.578125,[0. 0. 0. 0. 0. 0. 0. 0. 0.]
1742665775748849968,1742665775,742349487,imu_link,-0.01556396484375,0.09820556640625,-0.00115966796875,0.99505615234375,[0. 0. 0. 0. 0. 0. 0. 0. 0.],0.0,0.0,0.0,[0. 0. 0. 0. 0. 0. 0. 0. 0.],-1.87890625,-0.3046875,9.578125,[0. 0. 0. 0. 0. 0. 0. 0. 0.]
1742665775776269005,1742665775,762250801,imu_link,-0.01556396484375,0.09820556640625,-0.00115966796875,0.99505615234375,[0. 0. 0. 0. 0. 0. 0. 0. 0.],0.0,0.0,0.0,[0. 0. 0. 0. 0. 0. 0. 0. 0.],-1.9140625,-0.3046875,9.58203125,[0. 0. 0. 0. 0. 0. 0. 0. 0.]
1742665775788738450,1742665775,782048098,imu_link,-0.01556396484375,0.09820556640625,-0.00115966796875,0.99505615234375,[0. 0. 0. 0. 0. 0. 0. 0. 0.],0.0,0.0,0.0,[0. 0. 0. 0. 0. 0. 0. 0. 0.],-1.9140625,-0.3046875,9.58203125,[0. 0. 0. 0. 0. 0. 0. 0. 0.]
1742665775805673468,1742665775,802193764,imu_link,-0.01556396484375,0.09820556640625,-0.00115966796875,0.99505615234375,[0. 0. 0. 0. 0. 0. 0. 0. 0.],0.0,0.0,0.0,[0. 0. 0. 0. 0. 0. 0. 0. 0.],-1.9140625,-0.3046875,9.58203125,[0. 0. 0. 0. 0. 0. 0. 0. 0.]
1742665775836125524,1742665775,822116875,imu_link,-0.01556396484375,0.09820556640625,-0.00115966796875,0.99505615234375,[0. 0. 0. 0. 0. 0. 0. 0. 0.],0.0,0.0,0.0,[0. 0. 0. 0. 0. 0. 0. 0. 0.],-1.9140625,-0.3046875,9.58203125,[0. 0. 0. 0. 0. 0. 0. 0. 0.]
1742665775853507209,1742665775,842054579,imu_link,-0.01556396484375,0.09820556640625,-0.00115966796875,0.99505615234375,[0. 0. 0. 0. 0. 0. 0. 0. 0.],0.0,0.0,0.0,[0. 0. 0. 0. 0. 0. 0. 0. 0.],-1.87890625,-0.3046875,9.578125,[0. 0. 0. 0. 0. 0. 0. 0. 0.]
1742665775875077635,1742665775,862071801,imu_link,-0.01556396484375,0.09820556640625,-0.00115966796875,0.99505615234375,[0. 0. 0. 0. 0. 0. 0. 0. 0.],0.0,0.0,0.0,[0. 0. 0. 0. 0. 0. 0. 0. 0.],-1.87890625,-0.3046875,9.578125,[0. 0. 0. 0. 0. 0. 0. 0. 0.]
1742665775892808894,1742665775,882062542,imu_link,-0.01556396484375,0.09820556640625,-0.00115966796875,0.99505615234375,[0. 0. 0. 0. 0. 0. 0. 0. 0.],0.0,0.0,0.0,[0. 0. 0. 0. 0. 0. 0. 0. 0.],-1.9140625,-0.3046875,9.58203125,[0. 0. 0. 0. 0. 0. 0. 0. 0.]
1742665775905955783,1742665775,902168468,imu_link,-0.01556396484375,0.09820556640625,-0.00115966796875,0.99505615234375,[0. 0. 0. 0. 0. 0. 0. 0. 0.],0.0,0.0,0.0,[0. 0. 0. 0. 0. 0. 0. 0. 0.],-1.9140625,-0.3046875,9.58203125,[0. 0. 0. 0. 0. 0. 0. 0. 0.]
1742665775936218135,1742665775,922315190,imu_link,-0.01556396484375,0.09820556640625,-0.00115966796875,0.99505615234375,[0. 0. 0. 0. 0. 0. 0. 0. 0.],0.0,0.0,0.0,[0. 0. 0. 0. 0. 0. 0. 0. 0.],-1.9140625,-0.3046875,9.58203125,[0. 0. 0. 0. 0. 0. 0. 0. 0.]
1742665775953850598,1742665775,942382135,imu_link,-0.01556396484375,0.09820556640625,-0.00115966796875,0.99505615234375,[0. 0. 0. 0. 0. 0. 0. 0. 0.],0.0,0.0,0.0,[0. 0. 0. 0. 0. 0. 0. 0. 0.],-1.87890625,-0.3046875,9.578125,[0. 0. 0. 0. 0. 0. 0. 0. 0.]
1742665775977609431,1742665775,962084486,imu_link,-0.01556396484375,0.09820556640625,-0.00115966796875,0.99505615234375,[0. 0. 0. 0. 0. 0. 0. 0. 0.],0.0,0.0,0.0,[0. 0. 0. 0. 0. 0. 0. 0. 0.],-1.9140625,-0.3046875,9.58203125,[0. 0. 0. 0. 0. 0. 0. 0. 0.]
1742665775985425764,1742665775,982052449,imu_link,-0.01556396484375,0.09820556640625,-0.00115966796875,0.99505615234375,[0. 0. 0. 0. 0. 0. 0. 0. 0.],0.0,0.0,0.0,[0. 0. 0. 0. 0. 0. 0. 0. 0.],-1.9140625,-0.3046875,9.58203125,[0. 0. 0. 0. 0. 0. 0. 0. 0.]
1742665776022954209,1742665776,2164561,imu_link,-0.01556396484375,0.09820556640625,-0.00115966796875,0.99505615234375,[0. 0. 0. 0. 0. 0. 0. 0. 0.],0.0,0.0,0.0,[0. 0. 0. 0. 0. 0. 0. 0. 0.],-1.9140625,-0.3046875,9.58203125,[0. 0. 0. 0. 0. 0. 0. 0. 0.]
1742665776027245986,1742665776,25465431,imu_link,-0.01556396484375,0.09820556640625,-0.00115966796875,0.99505615234375,[0. 0. 0. 0. 0. 0. 0. 0. 0.],0.0,0.0,0.0,[0. 0. 0. 0. 0. 0. 0. 0. 0.],-1.9140625,-0.3046875,9.58203125,[0. 0. 0. 0. 0. 0. 0. 0. 0.]
1742665776053644468,1742665776,42164690,imu_link,-0.01556396484375,0.09820556640625,-0.00115966796875,0.99505615234375,[0. 0. 0. 0. 0. 0. 0. 0. 0.],0.0,0.0,0.0,[0. 0. 0. 0. 0. 0. 0. 0. 0.],-1.9140625,-0.3046875,9.58203125,[0. 0. 0. 0. 0. 0. 0. 0. 0.]
1742665776077999505,1742665776,62071431,imu_link,-0.01556396484375,0.09820556640625,-0.00115966796875,0.99505615234375,[0. 0. 0. 0. 0. 0. 0. 0. 0.],0.0,0.0,0.0,[0. 0. 0. 0. 0. 0. 0. 0. 0.],-1.9140625,-0.3046875,9.58203125,[0. 0. 0. 0. 0. 0. 0. 0. 0.]
1742665776085692338,1742665776,82187246,imu_link,-0.01556396484375,0.09820556640625,-0.00115966796875,0.99505615234375,[0. 0. 0. 0. 0. 0. 0. 0. 0.],0.0,0.0,0.0,[0. 0. 0. 0. 0. 0. 0. 0. 0.],-1.9140625,-0.3046875,9.58203125,[0. 0. 0. 0. 0. 0. 0. 0. 0.]
1742665776122453579,1742665776,102170079,imu_link,-0.01556396484375,0.09814453125,-0.00115966796875,0.99505615234375,[0. 0. 0. 0. 0. 0. 0. 0. 0.],0.0,0.0,0.0,[0. 0. 0. 0. 0. 0. 0. 0. 0.],-1.9140625,-0.3046875,9.58203125,[0. 0. 0. 0. 0. 0. 0. 0. 0.]
1742665776126770523,1742665776,124966635,imu_link,-0.01556396484375,0.09814453125,-0.00115966796875,0.99505615234375,[0. 0. 0. 0. 0. 0. 0. 0. 0.],0.0,0.0,0.0,[0. 0. 0. 0. 0. 0. 0. 0. 0.],-1.9140625,-0.3046875,9.58203125,[0. 0. 0. 0. 0. 0. 0. 0. 0.]
1742665776153619579,1742665776,142099468,imu_link,-0.01556396484375,0.09814453125,-0.00115966796875,0.99505615234375,[0. 0. 0. 0. 0. 0. 0. 0. 0.],0.0,0.0,0.0,[0. 0. 0. 0. 0. 0. 0. 0. 0.],-1.9140625,-0.3046875,9.58203125,[0. 0. 0. 0. 0. 0. 0. 0. 0.]
1742665776175673116,1742665776,162183468,imu_link,-0.01556396484375,0.09814453125,-0.00115966796875,0.99505615234375,[0. 0. 0. 0. 0. 0. 0. 0. 0.],0.0,0.0,0.0,[0. 0. 0. 0. 0. 0. 0. 0. 0.],-1.9140625,-0.3046875,9.58203125,[0. 0. 0. 0. 0. 0. 0. 0. 0.]
1742665776184870709,1742665776,182078097,imu_link,-0.01556396484375,0.09814453125,-0.00115966796875,0.99505615234375,[0. 0. 0. 0. 0. 0. 0. 0. 0.],0.0,0.0,0.0,[0. 0. 0. 0. 0. 0. 0. 0. 0.],-1.9140625,-0.3046875,9.58203125,[0. 0. 0. 0. 0. 0. 0. 0. 0.]
1742665776222099449,1742665776,202168838,imu_link,-0.01556396484375,0.09814453125,-0.00115966796875,0.99505615234375,[0. 0. 0. 0. 0. 0. 0. 0. 0.],0.0,0.0,0.0,[0. 0. 0. 0. 0. 0. 0. 0. 0.],-1.9140625,-0.3046875,9.58203125,[0. 0. 0. 0. 0. 0. 0. 0. 0.]
1742665776232063097,1742665776,225096375,imu_link,-0.01556396484375,0.09814453125,-0.00115966796875,0.99505615234375,[0. 0. 0. 0. 0. 0. 0. 0. 0.],0.0,0.0,0.0,[0. 0. 0. 0. 0. 0. 0. 0. 0.],-1.9140625,-0.3046875,9.58203125,[0. 0. 0. 0. 0. 0. 0. 0. 0.]
1742665776248621523,1742665776,242107912,imu_link,-0.01556396484375,0.09814453125,-0.00115966796875,0.99505615234375,[0. 0. 0. 0. 0. 0. 0. 0. 0.],0.0,0.0,0.0,[0. 0. 0. 0. 0. 0. 0. 0. 0.],-1.9140625,-0.3046875,9.58203125,[0. 0. 0. 0. 0. 0. 0. 0. 0.]
1742665776275553431,1742665776,262254894,imu_link,-0.01556396484375,0.09814453125,-0.00115966796875,0.99505615234375,[0. 0. 0. 0. 0. 0. 0. 0. 0.],0.0,0.0,0.0,[0. 0. 0. 0. 0. 0. 0. 0. 0.],-1.87890625,-0.3046875,9.578125,[0. 0. 0. 0. 0. 0. 0. 0. 0.]
1742665776285497264,1742665776,282102708,imu_link,-0.01556396484375,0.09814453125,-0.00115966796875,0.99505615234375,[0. 0. 0. 0. 0. 0. 0. 0. 0.],0.0,0.0,0.0,[0. 0. 0. 0. 0. 0. 0. 0. 0.],-1.87890625,-0.3046875,9.578125,[0. 0. 0. 0. 0. 0. 0. 0. 0.]
1742665776325835838,1742665776,302155746,imu_link,-0.01556396484375,0.09814453125,-0.00115966796875,0.99505615234375,[0. 0. 0. 0. 0. 0. 0. 0. 0.],0.0,0.0,0.0,[0. 0. 0. 0. 0. 0. 0. 0. 0.],-1.9140625,-0.3046875,9.58203125,[0. 0. 0. 0. 0. 0. 0. 0. 0.]
1742665776330374134,1742665776,327395097,imu_link,-0.01556396484375,0.09814453125,-0.00115966796875,0.99505615234375,[0. 0. 0. 0. 0. 0. 0. 0. 0.],0.0,0.0,0.0,[0. 0. 0. 0. 0. 0. 0. 0. 0.],-1.9140625,-0.3046875,9.58203125,[0. 0. 0. 0. 0. 0. 0. 0. 0.]
1742665776348114579,1742665776,342132208,imu_link,-0.01556396484375,0.09814453125,-0.00115966796875,0.99505615234375,[0. 0. 0. 0. 0. 0. 0. 0. 0.],0.0,0.0,0.0,[0. 0. 0. 0. 0. 0. 0. 0. 0.],-1.9140625,-0.3046875,9.58203125,[0. 0. 0. 0. 0. 0. 0. 0. 0.]
1742665776375401801,1742665776,362097208,imu_link,-0.01556396484375,0.09814453125,-0.00115966796875,0.99505615234375,[0. 0. 0. 0. 0. 0. 0. 0. 0.],0.0,0.0,0.0,[0. 0. 0. 0. 0. 0. 0. 0. 0.],-1.9140625,-0.3046875,9.58203125,[0. 0. 0. 0. 0. 0. 0. 0. 0.]
1742665776392651468,1742665776,382094542,imu_link,-0.01556396484375,0.09814453125,-0.00115966796875,0.99505615234375,[0. 0. 0. 0. 0. 0. 0. 0. 0.],0.0,0.0,0.0,[0. 0. 0. 0. 0. 0. 0. 0. 0.],-1.9140625,-0.3046875,9.58203125,[0. 0. 0. 0. 0. 0. 0. 0. 0.]
1742665776405646449,1742665776,402725745,imu_link,-0.01556396484375,0.09814453125,-0.00115966796875,0.99505615234375,[0. 0. 0. 0. 0. 0. 0. 0. 0.],0.0,0.0,0.0,[0. 0. 0. 0. 0. 0. 0. 0. 0.],-1.9140625,-0.3046875,9.58203125,[0. 0. 0. 0. 0. 0. 0. 0. 0.]
1742665776435667727,1742665776,422269245,imu_link,-0.01556396484375,0.09814453125,-0.00115966796875,0.99505615234375,[0. 0. 0. 0. 0. 0. 0. 0. 0.],0.0,0.0,0.0,[0. 0. 0. 0. 0. 0. 0. 0. 0.],-1.9140625,-0.3046875,9.58203125,[0. 0. 0. 0. 0. 0. 0. 0. 0.]
1742665776448179616,1742665776,442305560,imu_link,-0.01556396484375,0.09814453125,-0.00115966796875,0.99505615234375,[0. 0. 0. 0. 0. 0. 0. 0. 0.],0.0,0.0,0.0,[0. 0. 0. 0. 0. 0. 0. 0. 0.],-1.9140625,-0.3046875,9.58203125,[0. 0. 0. 0. 0. 0. 0. 0. 0.]
1742665776474441968,1742665776,462078782,imu_link,-0.01556396484375,0.09814453125,-0.00115966796875,0.99505615234375,[0. 0. 0. 0. 0. 0. 0. 0. 0.],0.0,0.0,0.0,[0. 0. 0. 0. 0. 0. 0. 0. 0.],-1.87890625,-0.3046875,9.578125,[0. 0. 0. 0. 0. 0. 0. 0. 0.]
1742665776493406208,1742665776,482129449,imu_link,-0.01556396484375,0.09814453125,-0.00115966796875,0.99505615234375,[0. 0. 0. 0. 0. 0. 0. 0. 0.],0.0,0.0,0.0,[0. 0. 0. 0. 0. 0. 0. 0. 0.],-1.9140625,-0.3046875,9.58203125,[0. 0. 0. 0. 0. 0. 0. 0. 0.]
1742665776505268264,1742665776,502437449,imu_link,-0.01556396484375,0.09814453125,-0.00115966796875,0.99505615234375,[0. 0. 0. 0. 0. 0. 0. 0. 0.],0.0,0.0,0.0,[0. 0. 0. 0. 0. 0. 0. 0. 0.],-1.9140625,-0.3046875,9.58203125,[0. 0. 0. 0. 0. 0. 0. 0. 0.]
1742665776535649412,1742665776,522327727,imu_link,-0.01556396484375,0.09814453125,-0.00115966796875,0.99505615234375,[0. 0. 0. 0. 0. 0. 0. 0. 0.],0.0,0.0,0.0,[0. 0. 0. 0. 0. 0. 0. 0. 0.],-1.9140625,-0.3046875,9.58203125,[0. 0. 0. 0. 0. 0. 0. 0. 0.]
1742665776553914634,1742665776,542152782,imu_link,-0.01556396484375,0.09814453125,-0.00115966796875,0.99505615234375,[0. 0. 0. 0. 0. 0. 0. 0. 0.],0.0,0.0,0.0,[0. 0. 0. 0. 0. 0. 0. 0. 0.],-1.9140625,-0.3046875,9.58203125,[0. 0. 0. 0. 0. 0. 0. 0. 0.]
1742665776577465282,1742665776,562083468,imu_link,-0.01556396484375,0.09814453125,-0.00115966796875,0.99505615234375,[0. 0. 0. 0. 0. 0. 0. 0. 0.],0.0,0.0,0.0,[0. 0. 0. 0. 0. 0. 0. 0. 0.],-1.9140625,-0.3046875,9.58203125,[0. 0. 0. 0. 0. 0. 0. 0. 0.]
1742665776585347134,1742665776,582427412,imu_link,-0.01556396484375,0.09814453125,-0.00115966796875,0.99505615234375,[0. 0. 0. 0. 0. 0. 0. 0. 0.],0.0,0.0,0.0,[0. 0. 0. 0. 0. 0. 0. 0. 0.],-1.9140625,-0.3046875,9.58203125,[0. 0. 0. 0. 0. 0. 0. 0. 0.]
1742665776621586190,1742665776,602156301,imu_link,-0.01556396484375,0.09814453125,-0.00115966796875,0.99505615234375,[0. 0. 0. 0. 0. 0. 0. 0. 0.],0.0,0.0,0.0,[0. 0. 0. 0. 0. 0. 0. 0. 0.],-1.9140625,-0.3046875,9.58203125,[0. 0. 0. 0. 0. 0. 0. 0. 0.]
1742665776626016986,1742665776,624200653,imu_link,-0.01556396484375,0.09814453125,-0.00115966796875,0.99505615234375,[0. 0. 0. 0. 0. 0. 0. 0. 0.],0.0,0.0,0.0,[0. 0. 0. 0. 0. 0. 0. 0. 0.],-1.9140625,-0.3046875,9.58203125,[0. 0. 0. 0. 0. 0. 0. 0. 0.]
1742665776653297227,1742665776,642091412,imu_link,-0.01556396484375,0.09814453125,-0.00115966796875,0.99505615234375,[0. 0. 0. 0. 0. 0. 0. 0. 0.],0.0,0.0,0.0,[0. 0. 0. 0. 0. 0. 0. 0. 0.],-1.9140625,-0.3046875,9.58203125,[0. 0. 0. 0. 0. 0. 0. 0. 0.]
1742665776676790245,1742665776,662085801,imu_link,-0.01556396484375,0.09808349609375,-0.00115966796875,0.99505615234375,[0. 0. 0. 0. 0. 0. 0. 0. 0.],0.0,0.0,0.0,[0. 0. 0. 0. 0. 0. 0. 0. 0.],-1.9140625,-0.3046875,9.58203125,[0. 0. 0. 0. 0. 0. 0. 0. 0.]
1742665776684921412,1742665776,682036653,imu_link,-0.01556396484375,0.09808349609375,-0.00115966796875,0.99505615234375,[0. 0. 0. 0. 0. 0. 0. 0. 0.],0.0,0.0,0.0,[0. 0. 0. 0. 0. 0. 0. 0. 0.],-1.9140625,-0.3046875,9.58203125,[0. 0. 0. 0. 0. 0. 0. 0. 0.]
1742665776718427412,1742665776,702162097,imu_link,-0.01556396484375,0.09808349609375,-0.00115966796875,0.99505615234375,[0. 0. 0. 0. 0. 0. 0. 0. 0.],0.0,0.0,0.0,[0. 0. 0. 0. 0. 0. 0. 0. 0.],-1.9140625,-0.3046875,9.58203125,[0. 0. 0. 0. 0. 0. 0. 0. 0.]
1742665776724948393,1742665776,722049875,imu_link,-0.01556396484375,0.09808349609375,-0.00115966796875,0.99505615234375,[0. 0. 0. 0. 0. 0. 0. 0. 0.],0.0,0.0,0.0,[0. 0. 0. 0. 0. 0. 0. 0. 0.],-1.9140625,-0.3046875,9.58203125,[0. 0. 0. 0. 0. 0. 0. 0. 0.]
1742665776752897449,1742665776,742154486,imu_link,-0.01556396484375,0.09808349609375,-0.00115966796875,0.99505615234375,[0. 0. 0. 0. 0. 0. 0. 0. 0.],0.0,0.0,0.0,[0. 0. 0. 0. 0. 0. 0. 0. 0.],-1.87890625,-0.3046875,9.578125,[0. 0. 0. 0. 0. 0. 0. 0. 0.]
1742665776774794708,1742665776,762152190,imu_link,-0.01556396484375,0.09814453125,-0.00115966796875,0.99505615234375,[0. 0. 0. 0. 0. 0. 0. 0. 0.],0.0,0.0,0.0,[0. 0. 0. 0. 0. 0. 0. 0. 0.],-1.9140625,-0.3046875,9.58203125,[0. 0. 0. 0. 0. 0. 0. 0. 0.]
1742665776784819542,1742665776,782046449,imu_link,-0.01556396484375,0.09814453125,-0.00115966796875,0.99505615234375,[0. 0. 0. 0. 0. 0. 0. 0. 0.],0.0,0.0,0.0,[0. 0. 0. 0. 0. 0. 0. 0. 0.],-1.9140625,-0.3046875,9.58203125,[0. 0. 0. 0. 0. 0. 0. 0. 0.]
1742665776818401764,1742665776,802175597,imu_link,-0.01556396484375,0.09808349609375,-0.00115966796875,0.99505615234375,[0. 0. 0. 0. 0. 0. 0. 0. 0.],0.0,0.0,0.0,[0. 0. 0. 0. 0. 0. 0. 0. 0.],-1.9140625,-0.3046875,9.58203125,[0. 0. 0. 0. 0. 0. 0. 0. 0.]
1742665776824792227,1742665776,822036856,imu_link,-0.01556396484375,0.09808349609375,-0.00115966796875,0.99505615234375,[0. 0. 0. 0. 0. 0. 0. 0. 0.],0.0,0.0,0.0,[0. 0. 0. 0. 0. 0. 0. 0. 0.],-1.9140625,-0.3046875,9.58203125,[0. 0. 0. 0. 0. 0. 0. 0. 0.]
1742665776852816004,1742665776,842154430,imu_link,-0.01556396484375,0.09808349609375,-0.00115966796875,0.99505615234375,[0. 0. 0. 0. 0. 0. 0. 0. 0.],0.0,0.0,0.0,[0. 0. 0. 0. 0. 0. 0. 0. 0.],-1.9140625,-0.3046875,9.58203125,[0. 0. 0. 0. 0. 0. 0. 0. 0.]
1742665776874756745,1742665776,862056949,imu_link,-0.01556396484375,0.09808349609375,-0.00115966796875,0.99505615234375,[0. 0. 0. 0. 0. 0. 0. 0. 0.],0.0,0.0,0.0,[0. 0. 0. 0. 0. 0. 0. 0. 0.],-1.9140625,-0.3046875,9.58203125,[0. 0. 0. 0. 0. 0. 0. 0. 0.]
1742665776885915912,1742665776,882097467,imu_link,-0.01556396484375,0.09808349609375,-0.00115966796875,0.99505615234375,[0. 0. 0. 0. 0. 0. 0. 0. 0.],0.0,0.0,0.0,[0. 0. 0. 0. 0. 0. 0. 0. 0.],-1.9140625,-0.3046875,9.58203125,[0. 0. 0. 0. 0. 0. 0. 0. 0.]
1742665776904737430,1742665776,902229116,imu_link,-0.01556396484375,0.09808349609375,-0.00115966796875,0.99505615234375,[0. 0. 0. 0. 0. 0. 0. 0. 0.],0.0,0.0,0.0,[0. 0. 0. 0. 0. 0. 0. 0. 0.],-1.9140625,-0.3046875,9.58203125,[0. 0. 0. 0. 0. 0. 0. 0. 0.]
1742665776936044986,1742665776,922483912,imu_link,-0.01556396484375,0.09808349609375,-0.00115966796875,0.99505615234375,[0. 0. 0. 0. 0. 0. 0. 0. 0.],0.0,0.0,0.0,[0. 0. 0. 0. 0. 0. 0. 0. 0.],-1.9140625,-0.3046875,9.58203125,[0. 0. 0. 0. 0. 0. 0. 0. 0.]
1742665776944891523,1742665776,942647245,imu_link,-0.01556396484375,0.09808349609375,-0.00115966796875,0.99505615234375,[0. 0. 0. 0. 0. 0. 0. 0. 0.],0.0,0.0,0.0,[0. 0. 0. 0. 0. 0. 0. 0. 0.],-1.9140625,-0.3046875,9.58203125,[0. 0. 0. 0. 0. 0. 0. 0. 0.]
1742665776974500856,1742665776,962097282,imu_link,-0.01556396484375,0.09808349609375,-0.00115966796875,0.99505615234375,[0. 0. 0. 0. 0. 0. 0. 0. 0.],0.0,0.0,0.0,[0. 0. 0. 0. 0. 0. 0. 0. 0.],-1.9140625,-0.3046875,9.58203125,[0. 0. 0. 0. 0. 0. 0. 0. 0.]
1742665776994695375,1742665776,982149004,imu_link,-0.01556396484375,0.09808349609375,-0.00115966796875,0.99505615234375,[0. 0. 0. 0. 0. 0. 0. 0. 0.],0.0,0.0,0.0,[0. 0. 0. 0. 0. 0. 0. 0. 0.],-1.9140625,-0.3046875,9.58203125,[0. 0. 0. 0. 0. 0. 0. 0. 0.]
1742665777004792560,1742665777,2050745,imu_link,-0.01556396484375,0.09808349609375,-0.00115966796875,0.99505615234375,[0. 0. 0. 0. 0. 0. 0. 0. 0.],0.0,0.0,0.0,[0. 0. 0. 0. 0. 0. 0. 0. 0.],-1.9140625,-0.3046875,9.58203125,[0. 0. 0. 0. 0. 0. 0. 0. 0.]
1742665777034922782,1742665777,22131967,imu_link,-0.01556396484375,0.09814453125,-0.00115966796875,0.99505615234375,[0. 0. 0. 0. 0. 0. 0. 0. 0.],0.0,0.0,0.0,[0. 0. 0. 0. 0. 0. 0. 0. 0.],-1.9140625,-0.3046875,9.58203125,[0. 0. 0. 0. 0. 0. 0. 0. 0.]
1742665777044917412,1742665777,42415727,imu_link,-0.01556396484375,0.09814453125,-0.00115966796875,0.99505615234375,[0. 0. 0. 0. 0. 0. 0. 0. 0.],0.0,0.0,0.0,[0. 0. 0. 0. 0. 0. 0. 0. 0.],-1.9140625,-0.3046875,9.58203125,[0. 0. 0. 0. 0. 0. 0. 0. 0.]
1742665777074917875,1742665777,62421486,imu_link,-0.01556396484375,0.09814453125,-0.00115966796875,0.99505615234375,[0. 0. 0. 0. 0. 0. 0. 0. 0.],0.0,0.0,0.0,[0. 0. 0. 0. 0. 0. 0. 0. 0.],-1.9140625,-0.3046875,9.58203125,[0. 0. 0. 0. 0. 0. 0. 0. 0.]
1742665777094458467,1742665777,82574764,imu_link,-0.01556396484375,0.09814453125,-0.00115966796875,0.99505615234375,[0. 0. 0. 0. 0. 0. 0. 0. 0.],0.0,0.0,0.0,[0. 0. 0. 0. 0. 0. 0. 0. 0.],-1.9140625,-0.3046875,9.58203125,[0. 0. 0. 0. 0. 0. 0. 0. 0.]
1742665777104469745,1742665777,102337282,imu_link,-0.01556396484375,0.09814453125,-0.00115966796875,0.99505615234375,[0. 0. 0. 0. 0. 0. 0. 0. 0.],0.0,0.0,0.0,[0. 0. 0. 0. 0. 0. 0. 0. 0.],-1.9140625,-0.3046875,9.58203125,[0. 0. 0. 0. 0. 0. 0. 0. 0.]
1742665777139492208,1742665777,122459523,imu_link,-0.01556396484375,0.09814453125,-0.00115966796875,0.99505615234375,[0. 0. 0. 0. 0. 0. 0. 0. 0.],0.0,0.0,0.0,[0. 0. 0. 0. 0. 0. 0. 0. 0.],-1.9140625,-0.3046875,9.58203125,[0. 0. 0. 0. 0. 0. 0. 0. 0.]
1742665777148909097,1742665777,145924745,imu_link,-0.01556396484375,0.09814453125,-0.00115966796875,0.99505615234375,[0. 0. 0. 0. 0. 0. 0. 0. 0.],0.0,0.0,0.0,[0. 0. 0. 0. 0. 0. 0. 0. 0.],-1.9140625,-0.3046875,9.58203125,[0. 0. 0. 0. 0. 0. 0. 0. 0.]
1742665777179310671,1742665777,162407245,imu_link,-0.01556396484375,0.09814453125,-0.00115966796875,0.99505615234375,[0. 0. 0. 0. 0. 0. 0. 0. 0.],0.0,0.0,0.0,[0. 0. 0. 0. 0. 0. 0. 0. 0.],-1.9140625,-0.3046875,9.58203125,[0. 0. 0. 0. 0. 0. 0. 0. 0.]
1742665777185238671,1742665777,182629689,imu_link,-0.01556396484375,0.09814453125,-0.00115966796875,0.99505615234375,[0. 0. 0. 0. 0. 0. 0. 0. 0.],0.0,0.0,0.0,[0. 0. 0. 0. 0. 0. 0. 0. 0.],-1.9140625,-0.3046875,9.58203125,[0. 0. 0. 0. 0. 0. 0. 0. 0.]
1742665777204085838,1742665777,202137597,imu_link,-0.01556396484375,0.09814453125,-0.00115966796875,0.99505615234375,[0. 0. 0. 0. 0. 0. 0. 0. 0.],0.0,0.0,0.0,[0. 0. 0. 0. 0. 0. 0. 0. 0.],-1.9140625,-0.3046875,9.58203125,[0. 0. 0. 0. 0. 0. 0. 0. 0.]
1742665777224406578,1742665777,222071245,imu_link,-0.01556396484375,0.09820556640625,-0.00115966796875,0.99505615234375,[0. 0. 0. 0. 0. 0. 0. 0. 0.],0.0,0.0,0.0,[0. 0. 0. 0. 0. 0. 0. 0. 0.],-1.9140625,-0.3046875,9.58203125,[0. 0. 0. 0. 0. 0. 0. 0. 0.]
1742665777253402986,1742665777,242171375,imu_link,-0.01556396484375,0.09820556640625,-0.00115966796875,0.99505615234375,[0. 0. 0. 0. 0. 0. 0. 0. 0.],0.0,0.0,0.0,[0. 0. 0. 0. 0. 0. 0. 0. 0.],-1.9140625,-0.3046875,9.58203125,[0. 0. 0. 0. 0. 0. 0. 0. 0.]
1742665777279087467,1742665777,262151393,imu_link,-0.01556396484375,0.09820556640625,-0.00115966796875,0.99505615234375,[0. 0. 0. 0. 0. 0. 0. 0. 0.],0.0,0.0,0.0,[0. 0. 0. 0. 0. 0. 0. 0. 0.],-1.9140625,-0.3046875,9.58203125,[0. 0. 0. 0. 0. 0. 0. 0. 0.]
1742665777284835282,1742665777,282086115,imu_link,-0.01556396484375,0.09820556640625,-0.00115966796875,0.99505615234375,[0. 0. 0. 0. 0. 0. 0. 0. 0.],0.0,0.0,0.0,[0. 0. 0. 0. 0. 0. 0. 0. 0.],-1.9140625,-0.3046875,9.58203125,[0. 0. 0. 0. 0. 0. 0. 0. 0.]
1742665777317422449,1742665777,302173023,imu_link,-0.01556396484375,0.09820556640625,-0.00115966796875,0.99505615234375,[0. 0. 0. 0. 0. 0. 0. 0. 0.],0.0,0.0,0.0,[0. 0. 0. 0. 0. 0. 0. 0. 0.],-1.9140625,-0.3046875,9.58203125,[0. 0. 0. 0. 0. 0. 0. 0. 0.]
1742665777324227967,1742665777,322068060,imu_link,-0.01556396484375,0.09820556640625,-0.00115966796875,0.99505615234375,[0. 0. 0. 0. 0. 0. 0. 0. 0.],0.0,0.0,0.0,[0. 0. 0. 0. 0. 0. 0. 0. 0.],-1.9140625,-0.3046875,9.58203125,[0. 0. 0. 0. 0. 0. 0. 0. 0.]
1742665777353467152,1742665777,342170634,imu_link,-0.01556396484375,0.09820556640625,-0.00115966796875,0.99505615234375,[0. 0. 0. 0. 0. 0. 0. 0. 0.],0.0,0.0,0.0,[0. 0. 0. 0. 0. 0. 0. 0. 0.],-1.9140625,-0.3046875,9.58203125,[0. 0. 0. 0. 0. 0. 0. 0. 0.]
1742665777375357208,1742665777,362114152,imu_link,-0.01556396484375,0.09820556640625,-0.00115966796875,0.99505615234375,[0. 0. 0. 0. 0. 0. 0. 0. 0.],0.0,0.0,0.0,[0. 0. 0. 0. 0. 0. 0. 0. 0.],-1.9140625,-0.3046875,9.58203125,[0. 0. 0. 0. 0. 0. 0. 0. 0.]
1742665777384694986,1742665777,382087134,imu_link,-0.01556396484375,0.09820556640625,-0.00115966796875,0.99505615234375,[0. 0. 0. 0. 0. 0. 0. 0. 0.],0.0,0.0,0.0,[0. 0. 0. 0. 0. 0. 0. 0. 0.],-1.9140625,-0.3046875,9.58203125,[0. 0. 0. 0. 0. 0. 0. 0. 0.]
1742665777418233671,1742665777,402604578,imu_link,-0.01556396484375,0.0982666015625,-0.00115966796875,0.99505615234375,[0. 0. 0. 0. 0. 0. 0. 0. 0.],0.0,0.0,0.0,[0. 0. 0. 0. 0. 0. 0. 0. 0.],-1.9140625,-0.3046875,9.58203125,[0. 0. 0. 0. 0. 0. 0. 0. 0.]
1742665777424165115,1742665777,422300430,imu_link,-0.01556396484375,0.0982666015625,-0.00115966796875,0.99505615234375,[0. 0. 0. 0. 0. 0. 0. 0. 0.],0.0,0.0,0.0,[0. 0. 0. 0. 0. 0. 0. 0. 0.],-1.9140625,-0.3046875,9.58203125,[0. 0. 0. 0. 0. 0. 0. 0. 0.]
1742665777453274337,1742665777,442459726,imu_link,-0.01556396484375,0.0982666015625,-0.00115966796875,0.99505615234375,[0. 0. 0. 0. 0. 0. 0. 0. 0.],0.0,0.0,0.0,[0. 0. 0. 0. 0. 0. 0. 0. 0.],-1.87890625,-0.3046875,9.578125,[0. 0. 0. 0. 0. 0. 0. 0. 0.]
1742665777475280597,1742665777,462302911,imu_link,-0.01556396484375,0.0982666015625,-0.00115966796875,0.99505615234375,[0. 0. 0. 0. 0. 0. 0. 0. 0.],0.0,0.0,0.0,[0. 0. 0. 0. 0. 0. 0. 0. 0.],-1.87890625,-0.3046875,9.578125,[0. 0. 0. 0. 0. 0. 0. 0. 0.]
1742665777484610060,1742665777,482156708,imu_link,-0.01556396484375,0.0982666015625,-0.00115966796875,0.99505615234375,[0. 0. 0. 0. 0. 0. 0. 0. 0.],0.0,0.0,0.0,[0. 0. 0. 0. 0. 0. 0. 0. 0.],-1.87890625,-0.3046875,9.578125,[0. 0. 0. 0. 0. 0. 0. 0. 0.]
1742665777504085560,1742665777,502319856,imu_link,-0.01556396484375,0.0982666015625,-0.00115966796875,0.99505615234375,[0. 0. 0. 0. 0. 0. 0. 0. 0.],0.0,0.0,0.0,[0. 0. 0. 0. 0. 0. 0. 0. 0.],-1.9140625,-0.3046875,9.58203125,[0. 0. 0. 0. 0. 0. 0. 0. 0.]
1742665777539453763,1742665777,522281541,imu_link,-0.01556396484375,0.0982666015625,-0.00115966796875,0.99505615234375,[0. 0. 0. 0. 0. 0. 0. 0. 0.],0.0,0.0,0.0,[0. 0. 0. 0. 0. 0. 0. 0. 0.],-1.9140625,-0.3046875,9.58203125,[0. 0. 0. 0. 0. 0. 0. 0. 0.]
1742665777544008134,1742665777,542052300,imu_link,-0.01556396484375,0.0982666015625,-0.00115966796875,0.99505615234375,[0. 0. 0. 0. 0. 0. 0. 0. 0.],0.0,0.0,0.0,[0. 0. 0. 0. 0. 0. 0. 0. 0.],-1.9140625,-0.3046875,9.58203125,[0. 0. 0. 0. 0. 0. 0. 0. 0.]
1742665777574158948,1742665777,562174671,imu_link,-0.01556396484375,0.0982666015625,-0.00115966796875,0.99505615234375,[0. 0. 0. 0. 0. 0. 0. 0. 0.],0.0,0.0,0.0,[0. 0. 0. 0. 0. 0. 0. 0. 0.],-1.87890625,-0.3046875,9.578125,[0. 0. 0. 0. 0. 0. 0. 0. 0.]
1742665777593530523,1742665777,582207708,imu_link,-0.01556396484375,0.0982666015625,-0.00115966796875,0.99505615234375,[0. 0. 0. 0. 0. 0. 0. 0. 0.],0.0,0.0,0.0,[0. 0. 0. 0. 0. 0. 0. 0. 0.],-1.9140625,-0.3046875,9.58203125,[0. 0. 0. 0. 0. 0. 0. 0. 0.]
1742665777603840041,1742665777,602078282,imu_link,-0.01556396484375,0.0982666015625,-0.00115966796875,0.99505615234375,[0. 0. 0. 0. 0. 0. 0. 0. 0.],0.0,0.0,0.0,[0. 0. 0. 0. 0. 0. 0. 0. 0.],-1.9140625,-0.3046875,9.58203125,[0. 0. 0. 0. 0. 0. 0. 0. 0.]
1742665777639447541,1742665777,622158411,imu_link,-0.01556396484375,0.0982666015625,-0.00115966796875,0.99505615234375,[0. 0. 0. 0. 0. 0. 0. 0. 0.],0.0,0.0,0.0,[0. 0. 0. 0. 0. 0. 0. 0. 0.],-1.9140625,-0.3046875,9.58203125,[0. 0. 0. 0. 0. 0. 0. 0. 0.]
1742665777643855356,1742665777,642061485,imu_link,-0.01556396484375,0.0982666015625,-0.00115966796875,0.99505615234375,[0. 0. 0. 0. 0. 0. 0. 0. 0.],0.0,0.0,0.0,[0. 0. 0. 0. 0. 0. 0. 0. 0.],-1.9140625,-0.3046875,9.58203125,[0. 0. 0. 0. 0. 0. 0. 0. 0.]
1742665777673977708,1742665777,662108615,imu_link,-0.01556396484375,0.09820556640625,-0.00115966796875,0.99505615234375,[0. 0. 0. 0. 0. 0. 0. 0. 0.],0.0,0.0,0.0,[0. 0. 0. 0. 0. 0. 0. 0. 0.],-1.9140625,-0.3046875,9.58203125,[0. 0. 0. 0. 0. 0. 0. 0. 0.]
1742665777693002726,1742665777,682141893,imu_link,-0.01556396484375,0.09820556640625,-0.00115966796875,0.99505615234375,[0. 0. 0. 0. 0. 0. 0. 0. 0.],0.0,0.0,0.0,[0. 0. 0. 0. 0. 0. 0. 0. 0.],-1.9140625,-0.3046875,9.58203125,[0. 0. 0. 0. 0. 0. 0. 0. 0.]
1742665777703960560,1742665777,702159115,imu_link,-0.01556396484375,0.09820556640625,-0.00115966796875,0.99505615234375,[0. 0. 0. 0. 0. 0. 0. 0. 0.],0.0,0.0,0.0,[0. 0. 0. 0. 0. 0. 0. 0. 0.],-1.9140625,-0.3046875,9.58203125,[0. 0. 0. 0. 0. 0. 0. 0. 0.]
1742665777726860134,1742665777,722928856,imu_link,-0.01556396484375,0.09820556640625,-0.00115966796875,0.99505615234375,[0. 0. 0. 0. 0. 0. 0. 0. 0.],0.0,0.0,0.0,[0. 0. 0. 0. 0. 0. 0. 0. 0.],-1.9140625,-0.3046875,9.58203125,[0. 0. 0. 0. 0. 0. 0. 0. 0.]
1742665777753232115,1742665777,742127726,imu_link,-0.01556396484375,0.09820556640625,-0.00115966796875,0.99505615234375,[0. 0. 0. 0. 0. 0. 0. 0. 0.],0.0,0.0,0.0,[0. 0. 0. 0. 0. 0. 0. 0. 0.],-1.9140625,-0.3046875,9.58203125,[0. 0. 0. 0. 0. 0. 0. 0. 0.]
1742665777779667504,1742665777,762185819,imu_link,-0.01556396484375,0.09820556640625,-0.00115966796875,0.99505615234375,[0. 0. 0. 0. 0. 0. 0. 0. 0.],0.0,0.0,0.0,[0. 0. 0. 0. 0. 0. 0. 0. 0.],-1.9140625,-0.3046875,9.58203125,[0. 0. 0. 0. 0. 0. 0. 0. 0.]
1742665777784101559,1742665777,782302689,imu_link,-0.01556396484375,0.09820556640625,-0.00115966796875,0.99505615234375,[0. 0. 0. 0. 0. 0. 0. 0. 0.],0.0,0.0,0.0,[0. 0. 0. 0. 0. 0. 0. 0. 0.],-1.9140625,-0.3046875,9.58203125,[0. 0. 0. 0. 0. 0. 0. 0. 0.]
1742665777804134134,1742665777,802216819,imu_link,-0.01556396484375,0.09820556640625,-0.00115966796875,0.99505615234375,[0. 0. 0. 0. 0. 0. 0. 0. 0.],0.0,0.0,0.0,[0. 0. 0. 0. 0. 0. 0. 0. 0.],-1.9140625,-0.3046875,9.58203125,[0. 0. 0. 0. 0. 0. 0. 0. 0.]
1742665777824827282,1742665777,822684356,imu_link,-0.01556396484375,0.09820556640625,-0.00115966796875,0.99505615234375,[0. 0. 0. 0. 0. 0. 0. 0. 0.],0.0,0.0,0.0,[0. 0. 0. 0. 0. 0. 0. 0. 0.],-1.76171875,-0.3828125,9.54296875,[0. 0. 0. 0. 0. 0. 0. 0. 0.]
1742665777853176337,1742665777,842402948,imu_link,-0.01556396484375,0.09820556640625,-0.00115966796875,0.99505615234375,[0. 0. 0. 0. 0. 0. 0. 0. 0.],0.01953125,-0.001953125,0.064453125,[0. 0. 0. 0. 0. 0. 0. 0. 0.],-1.2265625,-0.84375,9.58203125,[0. 0. 0. 0. 0. 0. 0. 0. 0.]
1742665777874779226,1742665777,862106208,imu_link,-0.01507568359375,0.09820556640625,6.103515625e-05,0.99505615234375,[0. 0. 0. 0. 0. 0. 0. 0. 0.],0.01953125,-0.001953125,0.064453125,[0. 0. 0. 0. 0. 0. 0. 0. 0.],-0.8046875,-0.91796875,9.7265625,[0. 0. 0. 0. 0. 0. 0. 0. 0.]
1742665777884450596,1742665777,882608671,imu_link,-0.01507568359375,0.09820556640625,6.103515625e-05,0.99505615234375,[0. 0. 0. 0. 0. 0. 0. 0. 0.],0.01953125,-0.001953125,0.064453125,[0. 0. 0. 0. 0. 0. 0. 0. 0.],-0.8046875,-0.91796875,9.7265625,[0. 0. 0. 0. 0. 0. 0. 0. 0.]
1742665777918294133,1742665777,902207485,imu_link,-0.0147705078125,0.09814453125,0.00341796875,0.99505615234375,[0. 0. 0. 0. 0. 0. 0. 0. 0.],-0.001953125,0.001953125,0.1484375,[0. 0. 0. 0. 0. 0. 0. 0. 0.],-0.65234375,-0.69140625,9.6875,[0. 0. 0. 0. 0. 0. 0. 0. 0.]
1742665777924327430,1742665777,922312189,imu_link,-0.0147705078125,0.09814453125,0.00341796875,0.99505615234375,[0. 0. 0. 0. 0. 0. 0. 0. 0.],-0.001953125,0.001953125,0.1484375,[0. 0. 0. 0. 0. 0. 0. 0. 0.],-0.65234375,-0.69140625,9.6875,[0. 0. 0. 0. 0. 0. 0. 0. 0.]
1742665777953133245,1742665777,942344282,imu_link,-0.0147705078125,0.09814453125,0.00341796875,0.99505615234375,[0. 0. 0. 0. 0. 0. 0. 0. 0.],-0.021484375,0.00390625,0.08203125,[0. 0. 0. 0. 0. 0. 0. 0. 0.],-0.34375,-0.65234375,9.69140625,[0. 0. 0. 0. 0. 0. 0. 0. 0.]
1742665777975953596,1742665777,962110485,imu_link,-0.01513671875,0.097900390625,0.00567626953125,0.99505615234375,[0. 0. 0. 0. 0. 0. 0. 0. 0.],-0.021484375,0.00390625,0.08203125,[0. 0. 0. 0. 0. 0. 0. 0. 0.],-0.3046875,-0.765625,9.609375,[0. 0. 0. 0. 0. 0. 0. 0. 0.]
1742665777984005189,1742665777,982140356,imu_link,-0.01513671875,0.097900390625,0.00567626953125,0.99505615234375,[0. 0. 0. 0. 0. 0. 0. 0. 0.],-0.021484375,0.00390625,0.08203125,[0. 0. 0. 0. 0. 0. 0. 0. 0.],-0.3046875,-0.765625,9.609375,[0. 0. 0. 0. 0. 0. 0. 0. 0.]
1742665778017963022,1742665778,2170300,imu_link,-0.0155029296875,0.09771728515625,0.009765625,0.99505615234375,[0. 0. 0. 0. 0. 0. 0. 0. 0.],-0.021484375,0.005859375,0.17578125,[0. 0. 0. 0. 0. 0. 0. 0. 0.],-1.03515625,-0.3046875,9.61328125,[0. 0. 0. 0. 0. 0. 0. 0. 0.]
1742665778024398504,1742665778,22136004,imu_link,-0.0155029296875,0.09771728515625,0.009765625,0.99505615234375,[0. 0. 0. 0. 0. 0. 0. 0. 0.],-0.021484375,0.005859375,0.17578125,[0. 0. 0. 0. 0. 0. 0. 0. 0.],-1.03515625,-0.3046875,9.61328125,[0. 0. 0. 0. 0. 0. 0. 0. 0.]
1742665778053208059,1742665778,42174948,imu_link,-0.0155029296875,0.09771728515625,0.009765625,0.99505615234375,[0. 0. 0. 0. 0. 0. 0. 0. 0.],-0.015625,0.005859375,0.125,[0. 0. 0. 0. 0. 0. 0. 0. 0.],-1.83984375,0.15234375,9.6484375,[0. 0. 0. 0. 0. 0. 0. 0. 0.]
1742665778075721596,1742665778,62140282,imu_link,-0.01580810546875,0.09759521484375,0.01312255859375,0.9949951171875,[0. 0. 0. 0. 0. 0. 0. 0. 0.],-0.015625,0.005859375,0.125,[0. 0. 0. 0. 0. 0. 0. 0. 0.],-2.10546875,0.11328125,9.58203125,[0. 0. 0. 0. 0. 0. 0. 0. 0.]
1742665778087259115,1742665778,82272133,imu_link,-0.01580810546875,0.09759521484375,0.01312255859375,0.9949951171875,[0. 0. 0. 0. 0. 0. 0. 0. 0.],-0.015625,0.005859375,0.125,[0. 0. 0. 0. 0. 0. 0. 0. 0.],-2.10546875,0.11328125,9.58203125,[0. 0. 0. 0. 0. 0. 0. 0. 0.]
1742665778114072337,1742665778,102546133,imu_link,-0.01617431640625,0.097412109375,0.01593017578125,0.9949951171875,[0. 0. 0. 0. 0. 0. 0. 0. 0.],0.001953125,0.001953125,0.1171875,[0. 0. 0. 0. 0. 0. 0. 0. 0.],-2.18359375,-0.26953125,9.5,[0. 0. 0. 0. 0. 0. 0. 0. 0.]
1742665778132209541,1742665778,123587467,imu_link,-0.01617431640625,0.097412109375,0.01593017578125,0.9949951171875,[0. 0. 0. 0. 0. 0. 0. 0. 0.],0.001953125,0.001953125,0.1171875,[0. 0. 0. 0. 0. 0. 0. 0. 0.],-2.48828125,0.0,9.5,[0. 0. 0. 0. 0. 0. 0. 0. 0.]
1742665778148848356,1742665778,142109485,imu_link,-0.01617431640625,0.097412109375,0.01593017578125,0.9949951171875,[0. 0. 0. 0. 0. 0. 0. 0. 0.],-0.0078125,0.005859375,0.08203125,[0. 0. 0. 0. 0. 0. 0. 0. 0.],-2.48828125,0.0,9.5,[0. 0. 0. 0. 0. 0. 0. 0. 0.]
1742665778175361318,1742665778,162149411,imu_link,-0.01654052734375,0.09716796875,0.01806640625,0.9949951171875,[0. 0. 0. 0. 0. 0. 0. 0. 0.],-0.0078125,0.005859375,0.08203125,[0. 0. 0. 0. 0. 0. 0. 0. 0.],-2.64453125,0.078125,9.578125,[0. 0. 0. 0. 0. 0. 0. 0. 0.]
1742665778192027244,1742665778,182097263,imu_link,-0.01654052734375,0.09716796875,0.01806640625,0.9949951171875,[0. 0. 0. 0. 0. 0. 0. 0. 0.],-0.005859375,0.005859375,0.01171875,[0. 0. 0. 0. 0. 0. 0. 0. 0.],-2.64453125,0.078125,9.578125,[0. 0. 0. 0. 0. 0. 0. 0. 0.]
1742665778204001133,1742665778,202117522,imu_link,-0.01654052734375,0.09716796875,0.01806640625,0.9949951171875,[0. 0. 0. 0. 0. 0. 0. 0. 0.],-0.005859375,0.005859375,0.01171875,[0. 0. 0. 0. 0. 0. 0. 0. 0.],-2.64453125,0.11328125,9.5390625,[0. 0. 0. 0. 0. 0. 0. 0. 0.]
1742665778229107170,1742665778,222281893,imu_link,-0.01690673828125,0.0968017578125,0.0185546875,0.9949951171875,[0. 0. 0. 0. 0. 0. 0. 0. 0.],-0.005859375,0.005859375,0.01171875,[0. 0. 0. 0. 0. 0. 0. 0. 0.],-2.453125,-0.0390625,9.5390625,[0. 0. 0. 0. 0. 0. 0. 0. 0.]
1742665778252652096,1742665778,242107818,imu_link,-0.01690673828125,0.0968017578125,0.0185546875,0.9949951171875,[0. 0. 0. 0. 0. 0. 0. 0. 0.],-0.00390625,0.0078125,0.021484375,[0. 0. 0. 0. 0. 0. 0. 0. 0.],-2.18359375,-0.078125,9.5390625,[0. 0. 0. 0. 0. 0. 0. 0. 0.]
1742665778274365004,1742665778,262223096,imu_link,-0.01715087890625,0.09649658203125,0.0189208984375,0.9949951171875,[0. 0. 0. 0. 0. 0. 0. 0. 0.],-0.00390625,0.0078125,0.021484375,[0. 0. 0. 0. 0. 0. 0. 0. 0.],-2.18359375,-0.078125,9.5390625,[0. 0. 0. 0. 0. 0. 0. 0. 0.]
1742665778292781726,1742665778,282596930,imu_link,-0.01715087890625,0.09649658203125,0.0189208984375,0.9949951171875,[0. 0. 0. 0. 0. 0. 0. 0. 0.],0.005859375,0.00390625,-0.01953125,[0. 0. 0. 0. 0. 0. 0. 0. 0.],-2.03125,-0.19140625,9.609375,[0. 0. 0. 0. 0. 0. 0. 0. 0.]
1742665778316761763,1742665778,302164763,imu_link,-0.01739501953125,0.09619140625,0.0185546875,0.99505615234375,[0. 0. 0. 0. 0. 0. 0. 0. 0.],0.005859375,0.00390625,-0.01953125,[0. 0. 0. 0. 0. 0. 0. 0. 0.],-2.03125,-0.19140625,9.609375,[0. 0. 0. 0. 0. 0. 0. 0. 0.]
1742665778325246633,1742665778,322121541,imu_link,-0.01739501953125,0.09619140625,0.0185546875,0.99505615234375,[0. 0. 0. 0. 0. 0. 0. 0. 0.],0.005859375,0.00390625,-0.01953125,[0. 0. 0. 0. 0. 0. 0. 0. 0.],-1.9140625,-0.11328125,9.578125,[0. 0. 0. 0. 0. 0. 0. 0. 0.]
1742665778352111781,1742665778,342175281,imu_link,-0.01739501953125,0.09619140625,0.0185546875,0.99505615234375,[0. 0. 0. 0. 0. 0. 0. 0. 0.],0.005859375,0.001953125,-0.04296875,[0. 0. 0. 0. 0. 0. 0. 0. 0.],-1.76171875,-0.26953125,9.58203125,[0. 0. 0. 0. 0. 0. 0. 0. 0.]
1742665778367137041,1742665778,363680226,imu_link,-0.0177001953125,0.09588623046875,0.017578125,0.99505615234375,[0. 0. 0. 0. 0. 0. 0. 0. 0.],0.005859375,0.001953125,-0.04296875,[0. 0. 0. 0. 0. 0. 0. 0. 0.],-1.76171875,-0.26953125,9.58203125,[0. 0. 0. 0. 0. 0. 0. 0. 0.]
1742665778392412429,1742665778,382214263,imu_link,-0.0177001953125,0.09588623046875,0.017578125,0.99505615234375,[0. 0. 0. 0. 0. 0. 0. 0. 0.],0.005859375,0.00390625,-0.015625,[0. 0. 0. 0. 0. 0. 0. 0. 0.],-1.609375,-0.3828125,9.578125,[0. 0. 0. 0. 0. 0. 0. 0. 0.]
1742665778415486318,1742665778,402151485,imu_link,-0.0179443359375,0.09564208984375,0.01702880859375,0.9951171875,[0. 0. 0. 0. 0. 0. 0. 0. 0.],0.005859375,0.00390625,-0.015625,[0. 0. 0. 0. 0. 0. 0. 0. 0.],-1.609375,-0.3828125,9.578125,[0. 0. 0. 0. 0. 0. 0. 0. 0.]
1742665778425235337,1742665778,422131022,imu_link,-0.0179443359375,0.09564208984375,0.01702880859375,0.9951171875,[0. 0. 0. 0. 0. 0. 0. 0. 0.],0.005859375,0.00390625,-0.015625,[0. 0. 0. 0. 0. 0. 0. 0. 0.],-1.609375,-0.421875,9.609375,[0. 0. 0. 0. 0. 0. 0. 0. 0.]
1742665778452595892,1742665778,442180633,imu_link,-0.0179443359375,0.09564208984375,0.01702880859375,0.9951171875,[0. 0. 0. 0. 0. 0. 0. 0. 0.],0.009765625,0.001953125,-0.025390625,[0. 0. 0. 0. 0. 0. 0. 0. 0.],-1.53125,-0.4609375,9.578125,[0. 0. 0. 0. 0. 0. 0. 0. 0.]
1742665778466740985,1742665778,463888707,imu_link,-0.01806640625,0.0953369140625,0.0164794921875,0.9951171875,[0. 0. 0. 0. 0. 0. 0. 0. 0.],0.009765625,0.001953125,-0.025390625,[0. 0. 0. 0. 0. 0. 0. 0. 0.],-1.53125,-0.4609375,9.578125,[0. 0. 0. 0. 0. 0. 0. 0. 0.]
1742665778488999411,1742665778,482222855,imu_link,-0.01806640625,0.0953369140625,0.0164794921875,0.9951171875,[0. 0. 0. 0. 0. 0. 0. 0. 0.],0.009765625,0.0078125,-0.001953125,[0. 0. 0. 0. 0. 0. 0. 0. 0.],-1.68359375,-0.49609375,9.61328125,[0. 0. 0. 0. 0. 0. 0. 0. 0.]
1742665778518341670,1742665778,502161781,imu_link,-0.01812744140625,0.09515380859375,0.01629638671875,0.99517822265625,[0. 0. 0. 0. 0. 0. 0. 0. 0.],0.009765625,0.0078125,-0.001953125,[0. 0. 0. 0. 0. 0. 0. 0. 0.],-1.9140625,-0.3828125,9.65234375,[0. 0. 0. 0. 0. 0. 0. 0. 0.]
1742665778525675355,1742665778,522116633,imu_link,-0.01812744140625,0.09515380859375,0.01629638671875,0.99517822265625,[0. 0. 0. 0. 0. 0. 0. 0. 0.],0.009765625,0.0078125,-0.001953125,[0. 0. 0. 0. 0. 0. 0. 0. 0.],-1.9140625,-0.3828125,9.65234375,[0. 0. 0. 0. 0. 0. 0. 0. 0.]
1742665778552606578,1742665778,542162818,imu_link,-0.01812744140625,0.09515380859375,0.01629638671875,0.99517822265625,[0. 0. 0. 0. 0. 0. 0. 0. 0.],0.0,0.001953125,0.00390625,[0. 0. 0. 0. 0. 0. 0. 0. 0.],-2.03125,-0.3828125,9.4609375,[0. 0. 0. 0. 0. 0. 0. 0. 0.]
1742665778571037411,1742665778,568233337,imu_link,-0.018310546875,0.09490966796875,0.016357421875,0.99517822265625,[0. 0. 0. 0. 0. 0. 0. 0. 0.],0.0,0.001953125,0.00390625,[0. 0. 0. 0. 0. 0. 0. 0. 0.],-2.18359375,-0.34375,9.61328125,[0. 0. 0. 0. 0. 0. 0. 0. 0.]
1742665778589920948,1742665778,582383874,imu_link,-0.018310546875,0.09490966796875,0.016357421875,0.99517822265625,[0. 0. 0. 0. 0. 0. 0. 0. 0.],0.0,0.001953125,-0.001953125,[0. 0. 0. 0. 0. 0. 0. 0. 0.],-2.18359375,-0.34375,9.61328125,[0. 0. 0. 0. 0. 0. 0. 0. 0.]
1742665778615744929,1742665778,602164411,imu_link,-0.0184326171875,0.0946044921875,0.016357421875,0.9952392578125,[0. 0. 0. 0. 0. 0. 0. 0. 0.],0.0,0.001953125,-0.001953125,[0. 0. 0. 0. 0. 0. 0. 0. 0.],-2.22265625,-0.23046875,9.5390625,[0. 0. 0. 0. 0. 0. 0. 0. 0.]
1742665778624260096,1742665778,622128763,imu_link,-0.0184326171875,0.0946044921875,0.016357421875,0.9952392578125,[0. 0. 0. 0. 0. 0. 0. 0. 0.],0.0,0.001953125,-0.001953125,[0. 0. 0. 0. 0. 0. 0. 0. 0.],-2.22265625,-0.23046875,9.5390625,[0. 0. 0. 0. 0. 0. 0. 0. 0.]
1742665778649777911,1742665778,642426429,imu_link,-0.0184326171875,0.0946044921875,0.016357421875,0.9952392578125,[0. 0. 0. 0. 0. 0. 0. 0. 0.],-0.00390625,-0.001953125,-0.001953125,[0. 0. 0. 0. 0. 0. 0. 0. 0.],-2.14453125,-0.26953125,9.578125,[0. 0. 0. 0. 0. 0. 0. 0. 0.]
1742665778677299540,1742665778,662202985,imu_link,-0.0185546875,0.0943603515625,0.0162353515625,0.9952392578125,[0. 0. 0. 0. 0. 0. 0. 0. 0.],-0.00390625,-0.001953125,-0.001953125,[0. 0. 0. 0. 0. 0. 0. 0. 0.],-1.953125,-0.421875,9.54296875,[0. 0. 0. 0. 0. 0. 0. 0. 0.]
1742665778692710133,1742665778,682093689,imu_link,-0.0185546875,0.0943603515625,0.0162353515625,0.9952392578125,[0. 0. 0. 0. 0. 0. 0. 0. 0.],-0.00390625,0.001953125,0.0,[0. 0. 0. 0. 0. 0. 0. 0. 0.],-1.953125,-0.421875,9.54296875,[0. 0. 0. 0. 0. 0. 0. 0. 0.]
1742665778715734577,1742665778,702117522,imu_link,-0.0186767578125,0.0941162109375,0.01617431640625,0.9952392578125,[0. 0. 0. 0. 0. 0. 0. 0. 0.],-0.00390625,0.001953125,0.0,[0. 0. 0. 0. 0. 0. 0. 0. 0.],-1.87890625,-0.34375,9.609375,[0. 0. 0. 0. 0. 0. 0. 0. 0.]
1742665778730184818,1742665778,722246133,imu_link,-0.0186767578125,0.0941162109375,0.01617431640625,0.9952392578125,[0. 0. 0. 0. 0. 0. 0. 0. 0.],-0.00390625,0.001953125,0.0,[0. 0. 0. 0. 0. 0. 0. 0. 0.],-1.80078125,-0.34375,9.5390625,[0. 0. 0. 0. 0. 0. 0. 0. 0.]
1742665778750006911,1742665778,742477744,imu_link,-0.0186767578125,0.0941162109375,0.01617431640625,0.9952392578125,[0. 0. 0. 0. 0. 0. 0. 0. 0.],-0.0078125,0.001953125,0.0078125,[0. 0. 0. 0. 0. 0. 0. 0. 0.],-1.80078125,-0.34375,9.5390625,[0. 0. 0. 0. 0. 0. 0. 0. 0.]
1742665778768945244,1742665778,765519948,imu_link,-0.018798828125,0.09393310546875,0.01629638671875,0.99530029296875,[0. 0. 0. 0. 0. 0. 0. 0. 0.],-0.0078125,0.001953125,0.0078125,[0. 0. 0. 0. 0. 0. 0. 0. 0.],-1.76171875,-0.34375,9.609375,[0. 0. 0. 0. 0. 0. 0. 0. 0.]
1742665778792399837,1742665778,782111244,imu_link,-0.018798828125,0.09393310546875,0.01629638671875,0.99530029296875,[0. 0. 0. 0. 0. 0. 0. 0. 0.],-0.01171875,0.00390625,0.001953125,[0. 0. 0. 0. 0. 0. 0. 0. 0.],-1.87890625,-0.26953125,9.609375,[0. 0. 0. 0. 0. 0. 0. 0. 0.]
1742665778821851337,1742665778,802359059,imu_link,-0.01904296875,0.09381103515625,0.01641845703125,0.99530029296875,[0. 0. 0. 0. 0. 0. 0. 0. 0.],-0.01171875,0.00390625,0.001953125,[0. 0. 0. 0. 0. 0. 0. 0. 0.],-1.953125,-0.3046875,9.50390625,[0. 0. 0. 0. 0. 0. 0. 0. 0.]
1742665778830035781,1742665778,826297392,imu_link,-0.01904296875,0.09381103515625,0.01641845703125,0.99530029296875,[0. 0. 0. 0. 0. 0. 0. 0. 0.],-0.01171875,0.00390625,0.001953125,[0. 0. 0. 0. 0. 0. 0. 0. 0.],-1.953125,-0.3046875,9.50390625,[0. 0. 0. 0. 0. 0. 0. 0. 0.]
1742665778865455892,1742665778,842973781,imu_link,-0.019287109375,0.09368896484375,0.01617431640625,0.99530029296875,[0. 0. 0. 0. 0. 0. 0. 0. 0.],-0.01171875,0.00390625,-0.0078125,[0. 0. 0. 0. 0. 0. 0. 0. 0.],-1.9140625,-0.34375,9.61328125,[0. 0. 0. 0. 0. 0. 0. 0. 0.]
1742665778870826559,1742665778,867861855,imu_link,-0.019287109375,0.09368896484375,0.01617431640625,0.99530029296875,[0. 0. 0. 0. 0. 0. 0. 0. 0.],-0.01171875,0.00390625,-0.0078125,[0. 0. 0. 0. 0. 0. 0. 0. 0.],-1.9140625,-0.34375,9.61328125,[0. 0. 0. 0. 0. 0. 0. 0. 0.]
1742665778892655633,1742665778,882137188,imu_link,-0.019287109375,0.09368896484375,0.01617431640625,0.99530029296875,[0. 0. 0. 0. 0. 0. 0. 0. 0.],-0.005859375,0.00390625,0.00390625,[0. 0. 0. 0. 0. 0. 0. 0. 0.],-1.953125,-0.34375,9.5390625,[0. 0. 0. 0. 0. 0. 0. 0. 0.]
1742665778918417522,1742665778,902166207,imu_link,-0.0194091796875,0.09356689453125,0.01617431640625,0.99530029296875,[0. 0. 0. 0. 0. 0. 0. 0. 0.],-0.005859375,0.00390625,0.00390625,[0. 0. 0. 0. 0. 0. 0. 0. 0.],-2.0703125,-0.34375,9.54296875,[0. 0. 0. 0. 0. 0. 0. 0. 0.]
1742665778926061133,1742665778,922536911,imu_link,-0.0194091796875,0.09356689453125,0.01617431640625,0.99530029296875,[0. 0. 0. 0. 0. 0. 0. 0. 0.],-0.005859375,0.00390625,0.00390625,[0. 0. 0. 0. 0. 0. 0. 0. 0.],-2.0703125,-0.34375,9.54296875,[0. 0. 0. 0. 0. 0. 0. 0. 0.]
1742665778964103188,1742665778,942708522,imu_link,-0.0194091796875,0.09381103515625,0.01611328125,0.99530029296875,[0. 0. 0. 0. 0. 0. 0. 0. 0.],-0.005859375,0.005859375,-0.001953125,[0. 0. 0. 0. 0. 0. 0. 0. 0.],-2.0703125,-0.421875,9.61328125,[0. 0. 0. 0. 0. 0. 0. 0. 0.]
1742665778970112503,1742665778,966697707,imu_link,-0.0194091796875,0.09381103515625,0.01611328125,0.99530029296875,[0. 0. 0. 0. 0. 0. 0. 0. 0.],-0.005859375,0.005859375,-0.001953125,[0. 0. 0. 0. 0. 0. 0. 0. 0.],-2.0703125,-0.421875,9.61328125,[0. 0. 0. 0. 0. 0. 0. 0. 0.]
1742665778994802818,1742665778,982524874,imu_link,-0.0194091796875,0.09381103515625,0.01611328125,0.99530029296875,[0. 0. 0. 0. 0. 0. 0. 0. 0.],-0.0078125,0.001953125,0.00390625,[0. 0. 0. 0. 0. 0. 0. 0. 0.],-2.10546875,-0.34375,9.58203125,[0. 0. 0. 0. 0. 0. 0. 0. 0.]
1742665779016503799,1742665779,2115503,imu_link,-0.01934814453125,0.09423828125,0.0162353515625,0.9952392578125,[0. 0. 0. 0. 0. 0. 0. 0. 0.],-0.0078125,0.001953125,0.00390625,[0. 0. 0. 0. 0. 0. 0. 0. 0.],-2.0703125,-0.26953125,9.54296875,[0. 0. 0. 0. 0. 0. 0. 0. 0.]
1742665779025401022,1742665779,22156670,imu_link,-0.01934814453125,0.09423828125,0.0162353515625,0.9952392578125,[0. 0. 0. 0. 0. 0. 0. 0. 0.],-0.0078125,0.001953125,0.00390625,[0. 0. 0. 0. 0. 0. 0. 0. 0.],-2.0703125,-0.26953125,9.54296875,[0. 0. 0. 0. 0. 0. 0. 0. 0.]
1742665779065430429,1742665779,42848818,imu_link,-0.01934814453125,0.0947265625,0.01629638671875,0.99517822265625,[0. 0. 0. 0. 0. 0. 0. 0. 0.],-0.005859375,0.0,0.00390625,[0. 0. 0. 0. 0. 0. 0. 0. 0.],-2.03125,-0.3046875,9.58203125,[0. 0. 0. 0. 0. 0. 0. 0. 0.]
1742665779074976244,1742665779,71962670,imu_link,-0.01934814453125,0.0947265625,0.01629638671875,0.99517822265625,[0. 0. 0. 0. 0. 0. 0. 0. 0.],-0.005859375,0.0,0.00390625,[0. 0. 0. 0. 0. 0. 0. 0. 0.],-1.9140625,-0.34375,9.578125,[0. 0. 0. 0. 0. 0. 0. 0. 0.]
1742665779090445188,1742665779,82237262,imu_link,-0.01934814453125,0.0947265625,0.01629638671875,0.99517822265625,[0. 0. 0. 0. 0. 0. 0. 0. 0.],-0.005859375,0.001953125,-0.00390625,[0. 0. 0. 0. 0. 0. 0. 0. 0.],-1.9140625,-0.34375,9.578125,[0. 0. 0. 0. 0. 0. 0. 0. 0.]
1742665779116465762,1742665779,102129225,imu_link,-0.01934814453125,0.09521484375,0.0162353515625,0.9951171875,[0. 0. 0. 0. 0. 0. 0. 0. 0.],-0.005859375,0.001953125,-0.00390625,[0. 0. 0. 0. 0. 0. 0. 0. 0.],-1.83984375,-0.3828125,9.54296875,[0. 0. 0. 0. 0. 0. 0. 0. 0.]
1742665779125648485,1742665779,122285707,imu_link,-0.01934814453125,0.09521484375,0.0162353515625,0.9951171875,[0. 0. 0. 0. 0. 0. 0. 0. 0.],-0.005859375,0.001953125,-0.00390625,[0. 0. 0. 0. 0. 0. 0. 0. 0.],-1.83984375,-0.3828125,9.54296875,[0. 0. 0. 0. 0. 0. 0. 0. 0.]
1742665779169523262,1742665779,142193429,imu_link,-0.0194091796875,0.095703125,0.0162353515625,0.99505615234375,[0. 0. 0. 0. 0. 0. 0. 0. 0.],-0.013671875,0.005859375,-0.00390625,[0. 0. 0. 0. 0. 0. 0. 0. 0.],-1.9140625,-0.3046875,9.6484375,[0. 0. 0. 0. 0. 0. 0. 0. 0.]
1742665779174748096,1742665779,171329559,imu_link,-0.0194091796875,0.095703125,0.0162353515625,0.99505615234375,[0. 0. 0. 0. 0. 0. 0. 0. 0.],-0.013671875,0.005859375,-0.00390625,[0. 0. 0. 0. 0. 0. 0. 0. 0.],-1.83984375,-0.34375,9.50390625,[0. 0. 0. 0. 0. 0. 0. 0. 0.]
1742665779190444707,1742665779,182487910,imu_link,-0.0194091796875,0.095703125,0.0162353515625,0.99505615234375,[0. 0. 0. 0. 0. 0. 0. 0. 0.],-0.013671875,0.00390625,0.001953125,[0. 0. 0. 0. 0. 0. 0. 0. 0.],-1.83984375,-0.34375,9.50390625,[0. 0. 0. 0. 0. 0. 0. 0. 0.]
1742665779216573281,1742665779,202180725,imu_link,-0.01947021484375,0.09613037109375,0.0162353515625,0.99505615234375,[0. 0. 0. 0. 0. 0. 0. 0. 0.],-0.013671875,0.00390625,0.001953125,[0. 0. 0. 0. 0. 0. 0. 0. 0.],-1.87890625,-0.3046875,9.5390625,[0. 0. 0. 0. 0. 0. 0. 0. 0.]
1742665779229596373,1742665779,222173818,imu_link,-0.01947021484375,0.09613037109375,0.0162353515625,0.99505615234375,[0. 0. 0. 0. 0. 0. 0. 0. 0.],-0.013671875,0.00390625,0.001953125,[0. 0. 0. 0. 0. 0. 0. 0. 0.],-1.87890625,-0.3046875,9.5390625,[0. 0. 0. 0. 0. 0. 0. 0. 0.]
1742665779249648725,1742665779,242119818,imu_link,-0.01947021484375,0.09613037109375,0.0162353515625,0.99505615234375,[0. 0. 0. 0. 0. 0. 0. 0. 0.],-0.013671875,0.001953125,-0.001953125,[0. 0. 0. 0. 0. 0. 0. 0. 0.],-1.9140625,-0.3828125,9.61328125,[0. 0. 0. 0. 0. 0. 0. 0. 0.]
1742665779278043855,1742665779,262297096,imu_link,-0.01953125,0.09649658203125,0.01617431640625,0.9949951171875,[0. 0. 0. 0. 0. 0. 0. 0. 0.],-0.013671875,0.001953125,-0.001953125,[0. 0. 0. 0. 0. 0. 0. 0. 0.],-2.03125,-0.34375,9.578125,[0. 0. 0. 0. 0. 0. 0. 0. 0.]
1742665779293278688,1742665779,282111503,imu_link,-0.01953125,0.09649658203125,0.01617431640625,0.9949951171875,[0. 0. 0. 0. 0. 0. 0. 0. 0.],-0.005859375,0.00390625,0.0,[0. 0. 0. 0. 0. 0. 0. 0. 0.],-2.10546875,-0.3046875,9.5390625,[0. 0. 0. 0. 0. 0. 0. 0. 0.]
1742665779315086522,1742665779,302145188,imu_link,-0.01959228515625,0.09686279296875,0.0162353515625,0.9949951171875,[0. 0. 0. 0. 0. 0. 0. 0. 0.],-0.005859375,0.00390625,0.0,[0. 0. 0. 0. 0. 0. 0. 0. 0.],-2.10546875,-0.3046875,9.5390625,[0. 0. 0. 0. 0. 0. 0. 0. 0.]
1742665779330110392,1742665779,322175021,imu_link,-0.01959228515625,0.09686279296875,0.0162353515625,0.9949951171875,[0. 0. 0. 0. 0. 0. 0. 0. 0.],-0.005859375,0.00390625,0.0,[0. 0. 0. 0. 0. 0. 0. 0. 0.],-2.10546875,-0.26953125,9.609375,[0. 0. 0. 0. 0. 0. 0. 0. 0.]
1742665779349534096,1742665779,342190262,imu_link,-0.01959228515625,0.09686279296875,0.0162353515625,0.9949951171875,[0. 0. 0. 0. 0. 0. 0. 0. 0.],-0.00390625,0.0078125,-0.005859375,[0. 0. 0. 0. 0. 0. 0. 0. 0.],-2.10546875,-0.26953125,9.609375,[0. 0. 0. 0. 0. 0. 0. 0. 0.]
1742665779377375799,1742665779,362137910,imu_link,-0.0196533203125,0.09722900390625,0.01605224609375,0.99493408203125,[0. 0. 0. 0. 0. 0. 0. 0. 0.],-0.00390625,0.0078125,-0.005859375,[0. 0. 0. 0. 0. 0. 0. 0. 0.],-2.0703125,-0.34375,9.50390625,[0. 0. 0. 0. 0. 0. 0. 0. 0.]
1742665779393158207,1742665779,382120818,imu_link,-0.0196533203125,0.09722900390625,0.01605224609375,0.99493408203125,[0. 0. 0. 0. 0. 0. 0. 0. 0.],0.0,0.00390625,0.00390625,[0. 0. 0. 0. 0. 0. 0. 0. 0.],-1.87890625,-0.4609375,9.54296875,[0. 0. 0. 0. 0. 0. 0. 0. 0.]
1742665779418814762,1742665779,402145688,imu_link,-0.01959228515625,0.09759521484375,0.01611328125,0.99493408203125,[0. 0. 0. 0. 0. 0. 0. 0. 0.],0.0,0.00390625,0.00390625,[0. 0. 0. 0. 0. 0. 0. 0. 0.],-1.87890625,-0.4609375,9.54296875,[0. 0. 0. 0. 0. 0. 0. 0. 0.]
1742665779427217929,1742665779,422558688,imu_link,-0.01959228515625,0.09759521484375,0.01611328125,0.99493408203125,[0. 0. 0. 0. 0. 0. 0. 0. 0.],0.0,0.00390625,0.00390625,[0. 0. 0. 0. 0. 0. 0. 0. 0.],-1.87890625,-0.3828125,9.6484375,[0. 0. 0. 0. 0. 0. 0. 0. 0.]
1742665779461433855,1742665779,442231540,imu_link,-0.01959228515625,0.0980224609375,0.01617431640625,0.994873046875,[0. 0. 0. 0. 0. 0. 0. 0. 0.],-0.00390625,0.0078125,-0.001953125,[0. 0. 0. 0. 0. 0. 0. 0. 0.],-1.9140625,-0.3046875,9.54296875,[0. 0. 0. 0. 0. 0. 0. 0. 0.]
1742665779467134077,1742665779,463687707,imu_link,-0.01959228515625,0.0980224609375,0.01617431640625,0.994873046875,[0. 0. 0. 0. 0. 0. 0. 0. 0.],-0.00390625,0.0078125,-0.001953125,[0. 0. 0. 0. 0. 0. 0. 0. 0.],-1.9140625,-0.3046875,9.54296875,[0. 0. 0. 0. 0. 0. 0. 0. 0.]
1742665779493071799,1742665779,482164966,imu_link,-0.01959228515625,0.0980224609375,0.01617431640625,0.994873046875,[0. 0. 0. 0. 0. 0. 0. 0. 0.],-0.0078125,0.005859375,0.0,[0. 0. 0. 0. 0. 0. 0. 0. 0.],-1.953125,-0.3046875,9.609375,[0. 0. 0. 0. 0. 0. 0. 0. 0.]
1742665779519624392,1742665779,502105540,imu_link,-0.01971435546875,0.09832763671875,0.01617431640625,0.99481201171875,[0. 0. 0. 0. 0. 0. 0. 0. 0.],-0.0078125,0.005859375,0.0,[0. 0. 0. 0. 0. 0. 0. 0. 0.],-2.03125,-0.3046875,9.58203125,[0. 0. 0. 0. 0. 0. 0. 0. 0.]
1742665779525614873,1742665779,522098577,imu_link,-0.01971435546875,0.09832763671875,0.01617431640625,0.99481201171875,[0. 0. 0. 0. 0. 0. 0. 0. 0.],-0.0078125,0.005859375,0.0,[0. 0. 0. 0. 0. 0. 0. 0. 0.],-2.03125,-0.3046875,9.58203125,[0. 0. 0. 0. 0. 0. 0. 0. 0.]
1742665779563594281,1742665779,542149207,imu_link,-0.01983642578125,0.0986328125,0.01605224609375,0.99481201171875,[0. 0. 0. 0. 0. 0. 0. 0. 0.],-0.00390625,0.005859375,-0.0078125,[0. 0. 0. 0. 0. 0. 0. 0. 0.],-1.9921875,-0.34375,9.5390625,[0. 0. 0. 0. 0. 0. 0. 0. 0.]
1742665779569031910,1742665779,566226299,imu_link,-0.01983642578125,0.0986328125,0.01605224609375,0.99481201171875,[0. 0. 0. 0. 0. 0. 0. 0. 0.],-0.00390625,0.005859375,-0.0078125,[0. 0. 0. 0. 0. 0. 0. 0. 0.],-1.9921875,-0.34375,9.5390625,[0. 0. 0. 0. 0. 0. 0. 0. 0.]
1742665779595405984,1742665779,582758373,imu_link,-0.01983642578125,0.0986328125,0.01605224609375,0.99481201171875,[0. 0. 0. 0. 0. 0. 0. 0. 0.],0.00390625,0.00390625,0.00390625,[0. 0. 0. 0. 0. 0. 0. 0. 0.],-2.03125,-0.4609375,9.61328125,[0. 0. 0. 0. 0. 0. 0. 0. 0.]
1742665779615944021,1742665779,602146984,imu_link,-0.01983642578125,0.09893798828125,0.01611328125,0.9947509765625,[0. 0. 0. 0. 0. 0. 0. 0. 0.],0.00390625,0.00390625,0.00390625,[0. 0. 0. 0. 0. 0. 0. 0. 0.],-2.03125,-0.34375,9.61328125,[0. 0. 0. 0. 0. 0. 0. 0. 0.]
1742665779625717632,1742665779,622171632,imu_link,-0.01983642578125,0.09893798828125,0.01611328125,0.9947509765625,[0. 0. 0. 0. 0. 0. 0. 0. 0.],0.00390625,0.00390625,0.00390625,[0. 0. 0. 0. 0. 0. 0. 0. 0.],-2.03125,-0.34375,9.61328125,[0. 0. 0. 0. 0. 0. 0. 0. 0.]
1742665779663768521,1742665779,642425614,imu_link,-0.019775390625,0.09918212890625,0.0162353515625,0.9947509765625,[0. 0. 0. 0. 0. 0. 0. 0. 0.],0.005859375,0.00390625,0.005859375,[0. 0. 0. 0. 0. 0. 0. 0. 0.],-1.953125,-0.34375,9.5,[0. 0. 0. 0. 0. 0. 0. 0. 0.]
1742665779671721410,1742665779,665901614,imu_link,-0.019775390625,0.09918212890625,0.0162353515625,0.9947509765625,[0. 0. 0. 0. 0. 0. 0. 0. 0.],0.005859375,0.00390625,0.005859375,[0. 0. 0. 0. 0. 0. 0. 0. 0.],-1.953125,-0.3046875,9.58203125,[0. 0. 0. 0. 0. 0. 0. 0. 0.]
1742665779689513114,1742665779,682116725,imu_link,-0.019775390625,0.09918212890625,0.0162353515625,0.9947509765625,[0. 0. 0. 0. 0. 0. 0. 0. 0.],0.0078125,0.001953125,0.00390625,[0. 0. 0. 0. 0. 0. 0. 0. 0.],-1.953125,-0.3046875,9.58203125,[0. 0. 0. 0. 0. 0. 0. 0. 0.]
1742665779716607466,1742665779,702191077,imu_link,-0.019775390625,0.099365234375,0.01629638671875,0.9947509765625,[0. 0. 0. 0. 0. 0. 0. 0. 0.],0.0078125,0.001953125,0.00390625,[0. 0. 0. 0. 0. 0. 0. 0. 0.],-1.9140625,-0.3828125,9.61328125,[0. 0. 0. 0. 0. 0. 0. 0. 0.]
1742665779725777447,1742665779,722124781,imu_link,-0.019775390625,0.099365234375,0.01629638671875,0.9947509765625,[0. 0. 0. 0. 0. 0. 0. 0. 0.],0.0078125,0.001953125,0.00390625,[0. 0. 0. 0. 0. 0. 0. 0. 0.],-1.9140625,-0.3828125,9.61328125,[0. 0. 0. 0. 0. 0. 0. 0. 0.]
1742665779768694299,1742665779,742177484,imu_link,-0.01983642578125,0.09954833984375,0.01629638671875,0.99468994140625,[0. 0. 0. 0. 0. 0. 0. 0. 0.],0.0078125,0.00390625,0.001953125,[0. 0. 0. 0. 0. 0. 0. 0. 0.],-1.9921875,-0.34375,9.5390625,[0. 0. 0. 0. 0. 0. 0. 0. 0.]
1742665779772945743,1742665779,770469947,imu_link,-0.01983642578125,0.09954833984375,0.01629638671875,0.99468994140625,[0. 0. 0. 0. 0. 0. 0. 0. 0.],0.0078125,0.00390625,0.001953125,[0. 0. 0. 0. 0. 0. 0. 0. 0.],-2.0703125,-0.3828125,9.609375,[0. 0. 0. 0. 0. 0. 0. 0. 0.]
1742665779789680910,1742665779,782485540,imu_link,-0.01983642578125,0.09954833984375,0.01629638671875,0.99468994140625,[0. 0. 0. 0. 0. 0. 0. 0. 0.],0.005859375,0.005859375,0.0,[0. 0. 0. 0. 0. 0. 0. 0. 0.],-2.0703125,-0.3828125,9.609375,[0. 0. 0. 0. 0. 0. 0. 0. 0.]
1742665779817097280,1742665779,802329706,imu_link,-0.0198974609375,0.09979248046875,0.016357421875,0.99468994140625,[0. 0. 0. 0. 0. 0. 0. 0. 0.],0.005859375,0.005859375,0.0,[0. 0. 0. 0. 0. 0. 0. 0. 0.],-2.03125,-0.34375,9.5390625,[0. 0. 0. 0. 0. 0. 0. 0. 0.]
1742665779829356780,1742665779,822094206,imu_link,-0.0198974609375,0.09979248046875,0.016357421875,0.99468994140625,[0. 0. 0. 0. 0. 0. 0. 0. 0.],0.005859375,0.005859375,0.0,[0. 0. 0. 0. 0. 0. 0. 0. 0.],-2.03125,-0.34375,9.5390625,[0. 0. 0. 0. 0. 0. 0. 0. 0.]
1742665779845790262,1742665779,842127392,imu_link,-0.0198974609375,0.09979248046875,0.016357421875,0.99468994140625,[0. 0. 0. 0. 0. 0. 0. 0. 0.],0.0,0.00390625,0.00390625,[0. 0. 0. 0. 0. 0. 0. 0. 0.],-2.03125,-0.3046875,9.58203125,[0. 0. 0. 0. 0. 0. 0. 0. 0.]
1742665779876368706,1742665779,862207225,imu_link,-0.01995849609375,0.0999755859375,0.01641845703125,0.99462890625,[0. 0. 0. 0. 0. 0. 0. 0. 0.],0.0,0.00390625,0.00390625,[0. 0. 0. 0. 0. 0. 0. 0. 0.],-1.953125,-0.3828125,9.61328125,[0. 0. 0. 0. 0. 0. 0. 0. 0.]
1742665779894147206,1742665779,882183317,imu_link,-0.01995849609375,0.0999755859375,0.01641845703125,0.99462890625,[0. 0. 0. 0. 0. 0. 0. 0. 0.],-0.001953125,0.001953125,0.0078125,[0. 0. 0. 0. 0. 0. 0. 0. 0.],-1.953125,-0.34375,9.578125,[0. 0. 0. 0. 0. 0. 0. 0. 0.]
1742665779915897225,1742665779,902253873,imu_link,-0.02001953125,0.1002197265625,0.0166015625,0.99462890625,[0. 0. 0. 0. 0. 0. 0. 0. 0.],-0.001953125,0.001953125,0.0078125,[0. 0. 0. 0. 0. 0. 0. 0. 0.],-1.953125,-0.34375,9.578125,[0. 0. 0. 0. 0. 0. 0. 0. 0.]
1742665779929100688,1742665779,922515003,imu_link,-0.02001953125,0.1002197265625,0.0166015625,0.99462890625,[0. 0. 0. 0. 0. 0. 0. 0. 0.],-0.001953125,0.001953125,0.0078125,[0. 0. 0. 0. 0. 0. 0. 0. 0.],-1.9921875,-0.34375,9.5390625,[0. 0. 0. 0. 0. 0. 0. 0. 0.]
1742665779945850151,1742665779,942384762,imu_link,-0.02001953125,0.1002197265625,0.0166015625,0.99462890625,[0. 0. 0. 0. 0. 0. 0. 0. 0.],-0.00390625,0.00390625,0.005859375,[0. 0. 0. 0. 0. 0. 0. 0. 0.],-1.9921875,-0.34375,9.5390625,[0. 0. 0. 0. 0. 0. 0. 0. 0.]
1742665779976725003,1742665779,962207780,imu_link,-0.02008056640625,0.1004638671875,0.01666259765625,0.99462890625,[0. 0. 0. 0. 0. 0. 0. 0. 0.],-0.00390625,0.00390625,0.005859375,[0. 0. 0. 0. 0. 0. 0. 0. 0.],-2.03125,-0.3046875,9.58203125,[0. 0. 0. 0. 0. 0. 0. 0. 0.]
1742665779993245817,1742665779,982097929,imu_link,-0.02008056640625,0.1004638671875,0.01666259765625,0.99462890625,[0. 0. 0. 0. 0. 0. 0. 0. 0.],-0.001953125,0.001953125,0.00390625,[0. 0. 0. 0. 0. 0. 0. 0. 0.],-2.03125,-0.34375,9.578125,[0. 0. 0. 0. 0. 0. 0. 0. 0.]
1742665780020032577,1742665780,2115817,imu_link,-0.02008056640625,0.10064697265625,0.0167236328125,0.99456787109375,[0. 0. 0. 0. 0. 0. 0. 0. 0.],-0.001953125,0.001953125,0.00390625,[0. 0. 0. 0. 0. 0. 0. 0. 0.],-2.0703125,-0.34375,9.58203125,[0. 0. 0. 0. 0. 0. 0. 0. 0.]
1742665780025626151,1742665780,22245262,imu_link,-0.02008056640625,0.10064697265625,0.0167236328125,0.99456787109375,[0. 0. 0. 0. 0. 0. 0. 0. 0.],-0.001953125,0.001953125,0.00390625,[0. 0. 0. 0. 0. 0. 0. 0. 0.],-2.0703125,-0.34375,9.58203125,[0. 0. 0. 0. 0. 0. 0. 0. 0.]
1742665780064270614,1742665780,42724428,imu_link,-0.02008056640625,0.10076904296875,0.01678466796875,0.99456787109375,[0. 0. 0. 0. 0. 0. 0. 0. 0.],-0.00390625,0.001953125,-0.001953125,[0. 0. 0. 0. 0. 0. 0. 0. 0.],-2.03125,-0.3828125,9.61328125,[0. 0. 0. 0. 0. 0. 0. 0. 0.]
1742665780068825206,1742665780,67032447,imu_link,-0.02008056640625,0.10076904296875,0.01678466796875,0.99456787109375,[0. 0. 0. 0. 0. 0. 0. 0. 0.],-0.00390625,0.001953125,-0.001953125,[0. 0. 0. 0. 0. 0. 0. 0. 0.],-2.03125,-0.3828125,9.61328125,[0. 0. 0. 0. 0. 0. 0. 0. 0.]
1742665780094276614,1742665780,82329336,imu_link,-0.02008056640625,0.10076904296875,0.01678466796875,0.99456787109375,[0. 0. 0. 0. 0. 0. 0. 0. 0.],-0.00390625,0.001953125,0.009765625,[0. 0. 0. 0. 0. 0. 0. 0. 0.],-1.953125,-0.3828125,9.578125,[0. 0. 0. 0. 0. 0. 0. 0. 0.]
1742665780118960465,1742665780,102156262,imu_link,-0.02008056640625,0.1009521484375,0.0169677734375,0.99456787109375,[0. 0. 0. 0. 0. 0. 0. 0. 0.],-0.00390625,0.001953125,0.009765625,[0. 0. 0. 0. 0. 0. 0. 0. 0.],-1.9921875,-0.34375,9.5390625,[0. 0. 0. 0. 0. 0. 0. 0. 0.]
1742665780125745984,1742665780,122210095,imu_link,-0.02008056640625,0.1009521484375,0.0169677734375,0.99456787109375,[0. 0. 0. 0. 0. 0. 0. 0. 0.],-0.00390625,0.001953125,0.009765625,[0. 0. 0. 0. 0. 0. 0. 0. 0.],-1.9921875,-0.34375,9.5390625,[0. 0. 0. 0. 0. 0. 0. 0. 0.]
1742665780163862632,1742665780,142156965,imu_link,-0.0201416015625,0.10101318359375,0.01702880859375,0.9945068359375,[0. 0. 0. 0. 0. 0. 0. 0. 0.],-0.005859375,-0.00390625,0.00390625,[0. 0. 0. 0. 0. 0. 0. 0. 0.],-1.9140625,-0.34375,9.5390625,[0. 0. 0. 0. 0. 0. 0. 0. 0.]
1742665780168552225,1742665780,166546002,imu_link,-0.0201416015625,0.10101318359375,0.01702880859375,0.9945068359375,[0. 0. 0. 0. 0. 0. 0. 0. 0.],-0.005859375,-0.00390625,0.00390625,[0. 0. 0. 0. 0. 0. 0. 0. 0.],-1.9140625,-0.34375,9.5390625,[0. 0. 0. 0. 0. 0. 0. 0. 0.]
1742665780194076336,1742665780,182106595,imu_link,-0.0201416015625,0.10101318359375,0.01702880859375,0.9945068359375,[0. 0. 0. 0. 0. 0. 0. 0. 0.],-0.005859375,-0.001953125,0.005859375,[0. 0. 0. 0. 0. 0. 0. 0. 0.],-1.9921875,-0.3828125,9.65234375,[0. 0. 0. 0. 0. 0. 0. 0. 0.]
1742665780216520280,1742665780,202126410,imu_link,-0.0201416015625,0.10113525390625,0.01715087890625,0.9945068359375,[0. 0. 0. 0. 0. 0. 0. 0. 0.],-0.005859375,-0.001953125,0.005859375,[0. 0. 0. 0. 0. 0. 0. 0. 0.],-2.03125,-0.3046875,9.54296875,[0. 0. 0. 0. 0. 0. 0. 0. 0.]
1742665780225691447,1742665780,222163780,imu_link,-0.0201416015625,0.10113525390625,0.01715087890625,0.9945068359375,[0. 0. 0. 0. 0. 0. 0. 0. 0.],-0.005859375,-0.001953125,0.005859375,[0. 0. 0. 0. 0. 0. 0. 0. 0.],-2.03125,-0.3046875,9.54296875,[0. 0. 0. 0. 0. 0. 0. 0. 0.]
1742665780263527743,1742665780,242187206,imu_link,-0.0201416015625,0.10125732421875,0.0172119140625,0.9945068359375,[0. 0. 0. 0. 0. 0. 0. 0. 0.],-0.0078125,0.001953125,-0.001953125,[0. 0. 0. 0. 0. 0. 0. 0. 0.],-1.9921875,-0.3046875,9.609375,[0. 0. 0. 0. 0. 0. 0. 0. 0.]
1742665780273487799,1742665780,266189632,imu_link,-0.0201416015625,0.10125732421875,0.0172119140625,0.9945068359375,[0. 0. 0. 0. 0. 0. 0. 0. 0.],-0.0078125,0.001953125,-0.001953125,[0. 0. 0. 0. 0. 0. 0. 0. 0.],-1.953125,-0.3828125,9.5390625,[0. 0. 0. 0. 0. 0. 0. 0. 0.]
1742665780289776169,1742665780,282513095,imu_link,-0.0201416015625,0.10125732421875,0.0172119140625,0.9945068359375,[0. 0. 0. 0. 0. 0. 0. 0. 0.],-0.005859375,0.00390625,0.0078125,[0. 0. 0. 0. 0. 0. 0. 0. 0.],-1.953125,-0.3828125,9.5390625,[0. 0. 0. 0. 0. 0. 0. 0. 0.]
1742665780316791039,1742665780,302326095,imu_link,-0.0201416015625,0.10137939453125,0.017333984375,0.9945068359375,[0. 0. 0. 0. 0. 0. 0. 0. 0.],-0.005859375,0.00390625,0.0078125,[0. 0. 0. 0. 0. 0. 0. 0. 0.],-1.9921875,-0.3828125,9.5390625,[0. 0. 0. 0. 0. 0. 0. 0. 0.]
1742665780325595299,1742665780,322105502,imu_link,-0.0201416015625,0.10137939453125,0.017333984375,0.9945068359375,[0. 0. 0. 0. 0. 0. 0. 0. 0.],-0.005859375,0.00390625,0.0078125,[0. 0. 0. 0. 0. 0. 0. 0. 0.],-1.9921875,-0.3828125,9.5390625,[0. 0. 0. 0. 0. 0. 0. 0. 0.]
1742665780367448188,1742665780,342184539,imu_link,-0.0201416015625,0.10150146484375,0.0174560546875,0.9945068359375,[0. 0. 0. 0. 0. 0. 0. 0. 0.],-0.005859375,0.001953125,0.00390625,[0. 0. 0. 0. 0. 0. 0. 0. 0.],-1.9921875,-0.34375,9.61328125,[0. 0. 0. 0. 0. 0. 0. 0. 0.]
1742665780371622336,1742665780,369231206,imu_link,-0.0201416015625,0.10150146484375,0.0174560546875,0.9945068359375,[0. 0. 0. 0. 0. 0. 0. 0. 0.],-0.005859375,0.001953125,0.00390625,[0. 0. 0. 0. 0. 0. 0. 0. 0.],-1.9921875,-0.34375,9.5390625,[0. 0. 0. 0. 0. 0. 0. 0. 0.]
1742665780389221502,1742665780,382470354,imu_link,-0.0201416015625,0.10150146484375,0.0174560546875,0.9945068359375,[0. 0. 0. 0. 0. 0. 0. 0. 0.],-0.001953125,0.00390625,0.00390625,[0. 0. 0. 0. 0. 0. 0. 0. 0.],-1.9921875,-0.34375,9.5390625,[0. 0. 0. 0. 0. 0. 0. 0. 0.]
1742665780416833928,1742665780,402720465,imu_link,-0.0201416015625,0.1016845703125,0.01751708984375,0.99444580078125,[0. 0. 0. 0. 0. 0. 0. 0. 0.],-0.001953125,0.00390625,0.00390625,[0. 0. 0. 0. 0. 0. 0. 0. 0.],-2.03125,-0.34375,9.5390625,[0. 0. 0. 0. 0. 0. 0. 0. 0.]
1742665780428724576,1742665780,422114762,imu_link,-0.0201416015625,0.1016845703125,0.01751708984375,0.99444580078125,[0. 0. 0. 0. 0. 0. 0. 0. 0.],-0.001953125,0.00390625,0.00390625,[0. 0. 0. 0. 0. 0. 0. 0. 0.],-2.03125,-0.34375,9.5390625,[0. 0. 0. 0. 0. 0. 0. 0. 0.]
1742665780445712836,1742665780,442211243,imu_link,-0.0201416015625,0.1016845703125,0.01751708984375,0.99444580078125,[0. 0. 0. 0. 0. 0. 0. 0. 0.],-0.001953125,0.001953125,0.0,[0. 0. 0. 0. 0. 0. 0. 0. 0.],-2.03125,-0.34375,9.5390625,[0. 0. 0. 0. 0. 0. 0. 0. 0.]
1742665780476516910,1742665780,462454910,imu_link,-0.0201416015625,0.10174560546875,0.017578125,0.99444580078125,[0. 0. 0. 0. 0. 0. 0. 0. 0.],-0.001953125,0.001953125,0.0,[0. 0. 0. 0. 0. 0. 0. 0. 0.],-2.03125,-0.3046875,9.54296875,[0. 0. 0. 0. 0. 0. 0. 0. 0.]
1742665780494239039,1742665780,482640632,imu_link,-0.0201416015625,0.10174560546875,0.017578125,0.99444580078125,[0. 0. 0. 0. 0. 0. 0. 0. 0.],0.0078125,-0.001953125,0.0,[0. 0. 0. 0. 0. 0. 0. 0. 0.],-2.03125,-0.421875,9.54296875,[0. 0. 0. 0. 0. 0. 0. 0. 0.]
1742665780515728076,1742665780,502108224,imu_link,-0.02008056640625,0.101806640625,0.017578125,0.99444580078125,[0. 0. 0. 0. 0. 0. 0. 0. 0.],0.0078125,-0.001953125,0.0,[0. 0. 0. 0. 0. 0. 0. 0. 0.],-2.03125,-0.421875,9.54296875,[0. 0. 0. 0. 0. 0. 0. 0. 0.]
1742665780528904224,1742665780,522106076,imu_link,-0.02008056640625,0.101806640625,0.017578125,0.99444580078125,[0. 0. 0. 0. 0. 0. 0. 0. 0.],0.0078125,-0.001953125,0.0,[0. 0. 0. 0. 0. 0. 0. 0. 0.],-2.0703125,-0.3828125,9.58203125,[0. 0. 0. 0. 0. 0. 0. 0. 0.]
1742665780546375762,1742665780,542134984,imu_link,-0.02008056640625,0.101806640625,0.017578125,0.99444580078125,[0. 0. 0. 0. 0. 0. 0. 0. 0.],0.009765625,0.0,0.0,[0. 0. 0. 0. 0. 0. 0. 0. 0.],-2.0703125,-0.3828125,9.58203125,[0. 0. 0. 0. 0. 0. 0. 0. 0.]
1742665780576554650,1742665780,562523095,imu_link,-0.02001953125,0.10186767578125,0.01763916015625,0.99444580078125,[0. 0. 0. 0. 0. 0. 0. 0. 0.],0.009765625,0.0,0.0,[0. 0. 0. 0. 0. 0. 0. 0. 0.],-2.0703125,-0.34375,9.609375,[0. 0. 0. 0. 0. 0. 0. 0. 0.]
1742665780594489632,1742665780,582837410,imu_link,-0.02001953125,0.10186767578125,0.01763916015625,0.99444580078125,[0. 0. 0. 0. 0. 0. 0. 0. 0.],0.005859375,0.00390625,-0.001953125,[0. 0. 0. 0. 0. 0. 0. 0. 0.],-1.9921875,-0.34375,9.5390625,[0. 0. 0. 0. 0. 0. 0. 0. 0.]
1742665780618510243,1742665780,602110817,imu_link,-0.02001953125,0.10198974609375,0.01763916015625,0.99444580078125,[0. 0. 0. 0. 0. 0. 0. 0. 0.],0.005859375,0.00390625,-0.001953125,[0. 0. 0. 0. 0. 0. 0. 0. 0.],-1.9921875,-0.34375,9.5390625,[0. 0. 0. 0. 0. 0. 0. 0. 0.]
1742665780626023632,1742665780,622537873,imu_link,-0.02001953125,0.10198974609375,0.01763916015625,0.99444580078125,[0. 0. 0. 0. 0. 0. 0. 0. 0.],0.005859375,0.00390625,-0.001953125,[0. 0. 0. 0. 0. 0. 0. 0. 0.],-1.953125,-0.34375,9.578125,[0. 0. 0. 0. 0. 0. 0. 0. 0.]
1742665780663280206,1742665780,642323410,imu_link,-0.02001953125,0.10211181640625,0.01763916015625,0.99444580078125,[0. 0. 0. 0. 0. 0. 0. 0. 0.],0.001953125,0.001953125,0.0,[0. 0. 0. 0. 0. 0. 0. 0. 0.],-1.953125,-0.34375,9.5390625,[0. 0. 0. 0. 0. 0. 0. 0. 0.]
1742665780667882965,1742665780,666027817,imu_link,-0.02001953125,0.10211181640625,0.01763916015625,0.99444580078125,[0. 0. 0. 0. 0. 0. 0. 0. 0.],0.001953125,0.001953125,0.0,[0. 0. 0. 0. 0. 0. 0. 0. 0.],-1.953125,-0.34375,9.5390625,[0. 0. 0. 0. 0. 0. 0. 0. 0.]
1742665780693155576,1742665780,682134873,imu_link,-0.02001953125,0.10211181640625,0.01763916015625,0.99444580078125,[0. 0. 0. 0. 0. 0. 0. 0. 0.],0.00390625,0.00390625,-0.00390625,[0. 0. 0. 0. 0. 0. 0. 0. 0.],-1.953125,-0.34375,9.578125,[0. 0. 0. 0. 0. 0. 0. 0. 0.]
1742665780718607298,1742665780,702183650,imu_link,-0.02001953125,0.10223388671875,0.01751708984375,0.994384765625,[0. 0. 0. 0. 0. 0. 0. 0. 0.],0.00390625,0.00390625,-0.00390625,[0. 0. 0. 0. 0. 0. 0. 0. 0.],-1.9921875,-0.3046875,9.609375,[0. 0. 0. 0. 0. 0. 0. 0. 0.]
1742665780726166706,1742665780,722321521,imu_link,-0.02001953125,0.10223388671875,0.01751708984375,0.994384765625,[0. 0. 0. 0. 0. 0. 0. 0. 0.],0.00390625,0.00390625,-0.00390625,[0. 0. 0. 0. 0. 0. 0. 0. 0.],-1.9921875,-0.3046875,9.609375,[0. 0. 0. 0. 0. 0. 0. 0. 0.]
1742665780762692243,1742665780,742218910,imu_link,-0.02008056640625,0.10235595703125,0.0174560546875,0.994384765625,[0. 0. 0. 0. 0. 0. 0. 0. 0.],0.00390625,0.00390625,-0.00390625,[0. 0. 0. 0. 0. 0. 0. 0. 0.],-1.9921875,-0.3046875,9.54296875,[0. 0. 0. 0. 0. 0. 0. 0. 0.]
1742665780767398910,1742665780,765264280,imu_link,-0.02008056640625,0.10235595703125,0.0174560546875,0.994384765625,[0. 0. 0. 0. 0. 0. 0. 0. 0.],0.00390625,0.00390625,-0.00390625,[0. 0. 0. 0. 0. 0. 0. 0. 0.],-1.9921875,-0.3046875,9.54296875,[0. 0. 0. 0. 0. 0. 0. 0. 0.]
1742665780793903891,1742665780,782138428,imu_link,-0.02008056640625,0.10235595703125,0.0174560546875,0.994384765625,[0. 0. 0. 0. 0. 0. 0. 0. 0.],0.005859375,0.005859375,0.0,[0. 0. 0. 0. 0. 0. 0. 0. 0.],-1.953125,-0.421875,9.54296875,[0. 0. 0. 0. 0. 0. 0. 0. 0.]
1742665780816554169,1742665780,802202410,imu_link,-0.02008056640625,0.10247802734375,0.0174560546875,0.994384765625,[0. 0. 0. 0. 0. 0. 0. 0. 0.],0.005859375,0.005859375,0.0,[0. 0. 0. 0. 0. 0. 0. 0. 0.],-2.03125,-0.421875,9.609375,[0. 0. 0. 0. 0. 0. 0. 0. 0.]
1742665780825636113,1742665780,822100872,imu_link,-0.02008056640625,0.10247802734375,0.0174560546875,0.994384765625,[0. 0. 0. 0. 0. 0. 0. 0. 0.],0.005859375,0.005859375,0.0,[0. 0. 0. 0. 0. 0. 0. 0. 0.],-2.03125,-0.421875,9.609375,[0. 0. 0. 0. 0. 0. 0. 0. 0.]
1742665780862629169,1742665780,842217113,imu_link,-0.02008056640625,0.10260009765625,0.01739501953125,0.994384765625,[0. 0. 0. 0. 0. 0. 0. 0. 0.],0.0078125,0.005859375,-0.001953125,[0. 0. 0. 0. 0. 0. 0. 0. 0.],-2.0703125,-0.3828125,9.58203125,[0. 0. 0. 0. 0. 0. 0. 0. 0.]
1742665780872571780,1742665780,865592854,imu_link,-0.02008056640625,0.10260009765625,0.01739501953125,0.994384765625,[0. 0. 0. 0. 0. 0. 0. 0. 0.],0.0078125,0.005859375,-0.001953125,[0. 0. 0. 0. 0. 0. 0. 0. 0.],-2.10546875,-0.34375,9.54296875,[0. 0. 0. 0. 0. 0. 0. 0. 0.]
1742665780888644835,1742665780,882132521,imu_link,-0.02008056640625,0.10260009765625,0.01739501953125,0.994384765625,[0. 0. 0. 0. 0. 0. 0. 0. 0.],0.0078125,0.00390625,0.001953125,[0. 0. 0. 0. 0. 0. 0. 0. 0.],-2.10546875,-0.34375,9.54296875,[0. 0. 0. 0. 0. 0. 0. 0. 0.]
1742665780915878113,1742665780,902379298,imu_link,-0.02001953125,0.10272216796875,0.01739501953125,0.994384765625,[0. 0. 0. 0. 0. 0. 0. 0. 0.],0.0078125,0.00390625,0.001953125,[0. 0. 0. 0. 0. 0. 0. 0. 0.],-2.10546875,-0.3046875,9.61328125,[0. 0. 0. 0. 0. 0. 0. 0. 0.]
1742665780925558669,1742665780,922106409,imu_link,-0.02001953125,0.10272216796875,0.01739501953125,0.994384765625,[0. 0. 0. 0. 0. 0. 0. 0. 0.],0.0078125,0.00390625,0.001953125,[0. 0. 0. 0. 0. 0. 0. 0. 0.],-2.10546875,-0.3046875,9.61328125,[0. 0. 0. 0. 0. 0. 0. 0. 0.]
1742665780966521317,1742665780,942350483,imu_link,-0.02001953125,0.10272216796875,0.017333984375,0.994384765625,[0. 0. 0. 0. 0. 0. 0. 0. 0.],0.00390625,0.0,-0.001953125,[0. 0. 0. 0. 0. 0. 0. 0. 0.],-2.03125,-0.34375,9.578125,[0. 0. 0. 0. 0. 0. 0. 0. 0.]
1742665780971964317,1742665780,968195076,imu_link,-0.02001953125,0.10272216796875,0.017333984375,0.994384765625,[0. 0. 0. 0. 0. 0. 0. 0. 0.],0.00390625,0.0,-0.001953125,[0. 0. 0. 0. 0. 0. 0. 0. 0.],-1.953125,-0.3828125,9.5,[0. 0. 0. 0. 0. 0. 0. 0. 0.]
1742665780988761743,1742665780,982142613,imu_link,-0.02001953125,0.10272216796875,0.017333984375,0.994384765625,[0. 0. 0. 0. 0. 0. 0. 0. 0.],0.00390625,0.0,0.00390625,[0. 0. 0. 0. 0. 0. 0. 0. 0.],-1.953125,-0.3828125,9.5,[0. 0. 0. 0. 0. 0. 0. 0. 0.]
1742665781015608613,1742665781,2207243,imu_link,-0.01995849609375,0.102783203125,0.017333984375,0.99432373046875,[0. 0. 0. 0. 0. 0. 0. 0. 0.],0.00390625,0.0,0.00390625,[0. 0. 0. 0. 0. 0. 0. 0. 0.],-1.9921875,-0.3828125,9.6875,[0. 0. 0. 0. 0. 0. 0. 0. 0.]
1742665781027838224,1742665781,22083724,imu_link,-0.01995849609375,0.102783203125,0.017333984375,0.99432373046875,[0. 0. 0. 0. 0. 0. 0. 0. 0.],0.00390625,0.0,0.00390625,[0. 0. 0. 0. 0. 0. 0. 0. 0.],-1.9921875,-0.3828125,9.6875,[0. 0. 0. 0. 0. 0. 0. 0. 0.]
1742665781046091632,1742665781,42170872,imu_link,-0.01995849609375,0.102783203125,0.017333984375,0.99432373046875,[0. 0. 0. 0. 0. 0. 0. 0. 0.],-0.001953125,0.0,0.001953125,[0. 0. 0. 0. 0. 0. 0. 0. 0.],-2.03125,-0.34375,9.578125,[0. 0. 0. 0. 0. 0. 0. 0. 0.]
1742665781075604483,1742665781,62202983,imu_link,-0.01995849609375,0.1029052734375,0.017333984375,0.99432373046875,[0. 0. 0. 0. 0. 0. 0. 0. 0.],-0.001953125,0.0,0.001953125,[0. 0. 0. 0. 0. 0. 0. 0. 0.],-1.953125,-0.3046875,9.50390625,[0. 0. 0. 0. 0. 0. 0. 0. 0.]
1742665781088902576,1742665781,82225632,imu_link,-0.01995849609375,0.1029052734375,0.017333984375,0.99432373046875,[0. 0. 0. 0. 0. 0. 0. 0. 0.],-0.00390625,0.001953125,0.00390625,[0. 0. 0. 0. 0. 0. 0. 0. 0.],-1.953125,-0.3046875,9.50390625,[0. 0. 0. 0. 0. 0. 0. 0. 0.]
1742665781115293595,1742665781,102148465,imu_link,-0.02001953125,0.1029052734375,0.01739501953125,0.99432373046875,[0. 0. 0. 0. 0. 0. 0. 0. 0.],-0.00390625,0.001953125,0.00390625,[0. 0. 0. 0. 0. 0. 0. 0. 0.],-1.9921875,-0.3828125,9.61328125,[0. 0. 0. 0. 0. 0. 0. 0. 0.]
1742665781133116872,1742665781,122177706,imu_link,-0.02001953125,0.1029052734375,0.01739501953125,0.99432373046875,[0. 0. 0. 0. 0. 0. 0. 0. 0.],-0.00390625,0.001953125,0.00390625,[0. 0. 0. 0. 0. 0. 0. 0. 0.],-1.9921875,-0.3046875,9.58203125,[0. 0. 0. 0. 0. 0. 0. 0. 0.]
1742665781145838261,1742665781,142206502,imu_link,-0.02001953125,0.1029052734375,0.01739501953125,0.99432373046875,[0. 0. 0. 0. 0. 0. 0. 0. 0.],-0.00390625,0.0,-0.005859375,[0. 0. 0. 0. 0. 0. 0. 0. 0.],-1.9921875,-0.3046875,9.58203125,[0. 0. 0. 0. 0. 0. 0. 0. 0.]
1742665781175598261,1742665781,162218094,imu_link,-0.02008056640625,0.1029052734375,0.017333984375,0.99432373046875,[0. 0. 0. 0. 0. 0. 0. 0. 0.],-0.00390625,0.0,-0.005859375,[0. 0. 0. 0. 0. 0. 0. 0. 0.],-1.953125,-0.34375,9.5390625,[0. 0. 0. 0. 0. 0. 0. 0. 0.]
1742665781193931187,1742665781,182098891,imu_link,-0.02008056640625,0.1029052734375,0.017333984375,0.99432373046875,[0. 0. 0. 0. 0. 0. 0. 0. 0.],-0.005859375,0.001953125,0.0,[0. 0. 0. 0. 0. 0. 0. 0. 0.],-2.03125,-0.34375,9.61328125,[0. 0. 0. 0. 0. 0. 0. 0. 0.]
1742665781217536298,1742665781,202132743,imu_link,-0.02008056640625,0.1029052734375,0.01727294921875,0.99432373046875,[0. 0. 0. 0. 0. 0. 0. 0. 0.],-0.005859375,0.001953125,0.0,[0. 0. 0. 0. 0. 0. 0. 0. 0.],-2.03125,-0.34375,9.61328125,[0. 0. 0. 0. 0. 0. 0. 0. 0.]
1742665781225911243,1742665781,222141872,imu_link,-0.02008056640625,0.1029052734375,0.01727294921875,0.99432373046875,[0. 0. 0. 0. 0. 0. 0. 0. 0.],-0.005859375,0.001953125,0.0,[0. 0. 0. 0. 0. 0. 0. 0. 0.],-1.9921875,-0.421875,9.50390625,[0. 0. 0. 0. 0. 0. 0. 0. 0.]
1742665781262437576,1742665781,242170983,imu_link,-0.02008056640625,0.10284423828125,0.017333984375,0.99432373046875,[0. 0. 0. 0. 0. 0. 0. 0. 0.],-0.005859375,-0.001953125,0.0,[0. 0. 0. 0. 0. 0. 0. 0. 0.],-2.03125,-0.3828125,9.578125,[0. 0. 0. 0. 0. 0. 0. 0. 0.]
1742665781266877354,1742665781,264947298,imu_link,-0.02008056640625,0.10284423828125,0.017333984375,0.99432373046875,[0. 0. 0. 0. 0. 0. 0. 0. 0.],-0.005859375,-0.001953125,0.0,[0. 0. 0. 0. 0. 0. 0. 0. 0.],-2.03125,-0.3828125,9.578125,[0. 0. 0. 0. 0. 0. 0. 0. 0.]
1742665781293349872,1742665781,282205780,imu_link,-0.02008056640625,0.10284423828125,0.017333984375,0.99432373046875,[0. 0. 0. 0. 0. 0. 0. 0. 0.],-0.00390625,0.001953125,0.0,[0. 0. 0. 0. 0. 0. 0. 0. 0.],-2.0703125,-0.3828125,9.609375,[0. 0. 0. 0. 0. 0. 0. 0. 0.]
1742665781318216446,1742665781,302640131,imu_link,-0.02008056640625,0.10284423828125,0.01727294921875,0.99432373046875,[0. 0. 0. 0. 0. 0. 0. 0. 0.],-0.00390625,0.001953125,0.0,[0. 0. 0. 0. 0. 0. 0. 0. 0.],-2.0703125,-0.34375,9.54296875,[0. 0. 0. 0. 0. 0. 0. 0. 0.]
1742665781325424724,1742665781,322517483,imu_link,-0.02008056640625,0.10284423828125,0.01727294921875,0.99432373046875,[0. 0. 0. 0. 0. 0. 0. 0. 0.],-0.00390625,0.001953125,0.0,[0. 0. 0. 0. 0. 0. 0. 0. 0.],-2.0703125,-0.34375,9.54296875,[0. 0. 0. 0. 0. 0. 0. 0. 0.]
1742665781362474817,1742665781,342645576,imu_link,-0.02001953125,0.1029052734375,0.017333984375,0.99432373046875,[0. 0. 0. 0. 0. 0. 0. 0. 0.],-0.001953125,0.001953125,0.00390625,[0. 0. 0. 0. 0. 0. 0. 0. 0.],-2.0703125,-0.34375,9.54296875,[0. 0. 0. 0. 0. 0. 0. 0. 0.]
1742665781367037724,1742665781,365184094,imu_link,-0.02001953125,0.1029052734375,0.017333984375,0.99432373046875,[0. 0. 0. 0. 0. 0. 0. 0. 0.],-0.001953125,0.001953125,0.00390625,[0. 0. 0. 0. 0. 0. 0. 0. 0.],-2.0703125,-0.34375,9.54296875,[0. 0. 0. 0. 0. 0. 0. 0. 0.]
1742665781393237298,1742665781,382180928,imu_link,-0.02001953125,0.1029052734375,0.017333984375,0.99432373046875,[0. 0. 0. 0. 0. 0. 0. 0. 0.],0.0,0.0,0.0,[0. 0. 0. 0. 0. 0. 0. 0. 0.],-1.9921875,-0.34375,9.578125,[0. 0. 0. 0. 0. 0. 0. 0. 0.]
1742665781415105187,1742665781,402216242,imu_link,-0.02001953125,0.1029052734375,0.017333984375,0.99432373046875,[0. 0. 0. 0. 0. 0. 0. 0. 0.],0.0,0.0,0.0,[0. 0. 0. 0. 0. 0. 0. 0. 0.],-1.953125,-0.3828125,9.5390625,[0. 0. 0. 0. 0. 0. 0. 0. 0.]
1742665781424916354,1742665781,422101076,imu_link,-0.02001953125,0.1029052734375,0.017333984375,0.99432373046875,[0. 0. 0. 0. 0. 0. 0. 0. 0.],0.0,0.0,0.0,[0. 0. 0. 0. 0. 0. 0. 0. 0.],-1.953125,-0.3828125,9.5390625,[0. 0. 0. 0. 0. 0. 0. 0. 0.]
1742665781458652576,1742665781,442206372,imu_link,-0.01995849609375,0.1029052734375,0.017333984375,0.99432373046875,[0. 0. 0. 0. 0. 0. 0. 0. 0.],0.0,-0.001953125,0.0,[0. 0. 0. 0. 0. 0. 0. 0. 0.],-1.9921875,-0.3828125,9.61328125,[0. 0. 0. 0. 0. 0. 0. 0. 0.]
1742665781464860428,1742665781,462096168,imu_link,-0.01995849609375,0.1029052734375,0.017333984375,0.99432373046875,[0. 0. 0. 0. 0. 0. 0. 0. 0.],0.0,-0.001953125,0.0,[0. 0. 0. 0. 0. 0. 0. 0. 0.],-1.9921875,-0.3828125,9.61328125,[0. 0. 0. 0. 0. 0. 0. 0. 0.]
1742665781493075224,1742665781,482220428,imu_link,-0.01995849609375,0.1029052734375,0.017333984375,0.99432373046875,[0. 0. 0. 0. 0. 0. 0. 0. 0.],-0.00390625,-0.001953125,0.0,[0. 0. 0. 0. 0. 0. 0. 0. 0.],-1.9921875,-0.34375,9.61328125,[0. 0. 0. 0. 0. 0. 0. 0. 0.]
1742665781515497391,1742665781,502097816,imu_link,-0.01995849609375,0.1029052734375,0.017333984375,0.99432373046875,[0. 0. 0. 0. 0. 0. 0. 0. 0.],-0.00390625,-0.001953125,0.0,[0. 0. 0. 0. 0. 0. 0. 0. 0.],-2.03125,-0.34375,9.578125,[0. 0. 0. 0. 0. 0. 0. 0. 0.]
1742665781524899372,1742665781,522116724,imu_link,-0.01995849609375,0.1029052734375,0.017333984375,0.99432373046875,[0. 0. 0. 0. 0. 0. 0. 0. 0.],-0.00390625,-0.001953125,0.0,[0. 0. 0. 0. 0. 0. 0. 0. 0.],-2.03125,-0.34375,9.578125,[0. 0. 0. 0. 0. 0. 0. 0. 0.]
1742665781558644872,1742665781,542220131,imu_link,-0.01995849609375,0.102783203125,0.01727294921875,0.99432373046875,[0. 0. 0. 0. 0. 0. 0. 0. 0.],-0.001953125,-0.00390625,-0.00390625,[0. 0. 0. 0. 0. 0. 0. 0. 0.],-2.03125,-0.34375,9.578125,[0. 0. 0. 0. 0. 0. 0. 0. 0.]
1742665781566959242,1742665781,565201409,imu_link,-0.01995849609375,0.102783203125,0.01727294921875,0.99432373046875,[0. 0. 0. 0. 0. 0. 0. 0. 0.],-0.001953125,-0.00390625,-0.00390625,[0. 0. 0. 0. 0. 0. 0. 0. 0.],-1.9921875,-0.3828125,9.578125,[0. 0. 0. 0. 0. 0. 0. 0. 0.]
1742665781589014391,1742665781,582266002,imu_link,-0.01995849609375,0.102783203125,0.01727294921875,0.99432373046875,[0. 0. 0. 0. 0. 0. 0. 0. 0.],-0.001953125,-0.00390625,-0.001953125,[0. 0. 0. 0. 0. 0. 0. 0. 0.],-1.9921875,-0.3828125,9.578125,[0. 0. 0. 0. 0. 0. 0. 0. 0.]
1742665781614911502,1742665781,602118668,imu_link,-0.02001953125,0.10272216796875,0.0172119140625,0.994384765625,[0. 0. 0. 0. 0. 0. 0. 0. 0.],-0.001953125,-0.00390625,-0.001953125,[0. 0. 0. 0. 0. 0. 0. 0. 0.],-1.9921875,-0.3046875,9.58203125,[0. 0. 0. 0. 0. 0. 0. 0. 0.]
1742665781633350909,1742665781,622142353,imu_link,-0.02001953125,0.10272216796875,0.0172119140625,0.994384765625,[0. 0. 0. 0. 0. 0. 0. 0. 0.],-0.001953125,-0.00390625,-0.001953125,[0. 0. 0. 0. 0. 0. 0. 0. 0.],-1.9921875,-0.3046875,9.58203125,[0. 0. 0. 0. 0. 0. 0. 0. 0.]
1742665781644923428,1742665781,642626298,imu_link,-0.02001953125,0.10272216796875,0.0172119140625,0.994384765625,[0. 0. 0. 0. 0. 0. 0. 0. 0.],0.001953125,-0.001953125,-0.005859375,[0. 0. 0. 0. 0. 0. 0. 0. 0.],-1.953125,-0.3828125,9.5390625,[0. 0. 0. 0. 0. 0. 0. 0. 0.]
1742665781674841353,1742665781,662674742,imu_link,-0.02008056640625,0.1026611328125,0.01715087890625,0.994384765625,[0. 0. 0. 0. 0. 0. 0. 0. 0.],0.001953125,-0.001953125,-0.005859375,[0. 0. 0. 0. 0. 0. 0. 0. 0.],-1.953125,-0.421875,9.609375,[0. 0. 0. 0. 0. 0. 0. 0. 0.]
1742665781688227539,1742665781,682398316,imu_link,-0.02008056640625,0.1026611328125,0.01715087890625,0.994384765625,[0. 0. 0. 0. 0. 0. 0. 0. 0.],0.00390625,-0.001953125,0.005859375,[0. 0. 0. 0. 0. 0. 0. 0. 0.],-1.953125,-0.421875,9.609375,[0. 0. 0. 0. 0. 0. 0. 0. 0.]
1742665781714664168,1742665781,702143594,imu_link,-0.0201416015625,0.10260009765625,0.0172119140625,0.994384765625,[0. 0. 0. 0. 0. 0. 0. 0. 0.],0.00390625,-0.001953125,0.005859375,[0. 0. 0. 0. 0. 0. 0. 0. 0.],-1.9921875,-0.3828125,9.5390625,[0. 0. 0. 0. 0. 0. 0. 0. 0.]
1742665781733398742,1742665781,722210372,imu_link,-0.0201416015625,0.10260009765625,0.0172119140625,0.994384765625,[0. 0. 0. 0. 0. 0. 0. 0. 0.],-0.001953125,-0.005859375,-0.0078125,[0. 0. 0. 0. 0. 0. 0. 0. 0.],-1.9921875,-0.34375,9.5390625,[0. 0. 0. 0. 0. 0. 0. 0. 0.]
1742665781744950687,1742665781,742114076,imu_link,-0.0201416015625,0.10260009765625,0.0172119140625,0.994384765625,[0. 0. 0. 0. 0. 0. 0. 0. 0.],-0.001953125,-0.005859375,-0.0078125,[0. 0. 0. 0. 0. 0. 0. 0. 0.],-1.9921875,-0.34375,9.5390625,[0. 0. 0. 0. 0. 0. 0. 0. 0.]
1742665781774967946,1742665781,762202409,imu_link,-0.020263671875,0.10247802734375,0.01708984375,0.994384765625,[0. 0. 0. 0. 0. 0. 0. 0. 0.],-0.001953125,-0.005859375,-0.0078125,[0. 0. 0. 0. 0. 0. 0. 0. 0.],-2.0703125,-0.34375,9.58203125,[0. 0. 0. 0. 0. 0. 0. 0. 0.]
1742665781794035779,1742665781,782111539,imu_link,-0.020263671875,0.10247802734375,0.01708984375,0.994384765625,[0. 0. 0. 0. 0. 0. 0. 0. 0.],-0.001953125,-0.001953125,0.0,[0. 0. 0. 0. 0. 0. 0. 0. 0.],-2.10546875,-0.34375,9.609375,[0. 0. 0. 0. 0. 0. 0. 0. 0.]
1742665781819449742,1742665781,802588946,imu_link,-0.02032470703125,0.1024169921875,0.01708984375,0.994384765625,[0. 0. 0. 0. 0. 0. 0. 0. 0.],-0.001953125,-0.001953125,0.0,[0. 0. 0. 0. 0. 0. 0. 0. 0.],-2.14453125,-0.34375,9.5,[0. 0. 0. 0. 0. 0. 0. 0. 0.]
1742665781824892279,1742665781,822097316,imu_link,-0.02032470703125,0.1024169921875,0.01708984375,0.994384765625,[0. 0. 0. 0. 0. 0. 0. 0. 0.],-0.001953125,-0.001953125,0.0,[0. 0. 0. 0. 0. 0. 0. 0. 0.],-2.14453125,-0.34375,9.5,[0. 0. 0. 0. 0. 0. 0. 0. 0.]
1742665781857974279,1742665781,842212224,imu_link,-0.02044677734375,0.1024169921875,0.0169677734375,0.994384765625,[0. 0. 0. 0. 0. 0. 0. 0. 0.],-0.00390625,0.001953125,-0.005859375,[0. 0. 0. 0. 0. 0. 0. 0. 0.],-2.14453125,-0.34375,9.5,[0. 0. 0. 0. 0. 0. 0. 0. 0.]
1742665781864978150,1742665781,862090890,imu_link,-0.02044677734375,0.1024169921875,0.0169677734375,0.994384765625,[0. 0. 0. 0. 0. 0. 0. 0. 0.],-0.00390625,0.001953125,-0.005859375,[0. 0. 0. 0. 0. 0. 0. 0. 0.],-2.03125,-0.34375,9.61328125,[0. 0. 0. 0. 0. 0. 0. 0. 0.]
1742665781893446538,1742665781,882233224,imu_link,-0.02044677734375,0.1024169921875,0.0169677734375,0.994384765625,[0. 0. 0. 0. 0. 0. 0. 0. 0.],-0.00390625,-0.001953125,0.0,[0. 0. 0. 0. 0. 0. 0. 0. 0.],-1.953125,-0.421875,9.58203125,[0. 0. 0. 0. 0. 0. 0. 0. 0.]
1742665781917715742,1742665781,902255520,imu_link,-0.02044677734375,0.10247802734375,0.0169677734375,0.994384765625,[0. 0. 0. 0. 0. 0. 0. 0. 0.],-0.00390625,-0.001953125,0.0,[0. 0. 0. 0. 0. 0. 0. 0. 0.],-1.9140625,-0.3828125,9.5,[0. 0. 0. 0. 0. 0. 0. 0. 0.]
1742665781924810242,1742665781,922204964,imu_link,-0.02044677734375,0.10247802734375,0.0169677734375,0.994384765625,[0. 0. 0. 0. 0. 0. 0. 0. 0.],-0.00390625,-0.001953125,0.0,[0. 0. 0. 0. 0. 0. 0. 0. 0.],-1.9140625,-0.3828125,9.5,[0. 0. 0. 0. 0. 0. 0. 0. 0.]
1742665781959342964,1742665781,942461261,imu_link,-0.02044677734375,0.10247802734375,0.01702880859375,0.994384765625,[0. 0. 0. 0. 0. 0. 0. 0. 0.],0.0,-0.001953125,0.00390625,[0. 0. 0. 0. 0. 0. 0. 0. 0.],-1.9140625,-0.34375,9.65234375,[0. 0. 0. 0. 0. 0. 0. 0. 0.]
1742665781964556075,1742665781,962306446,imu_link,-0.02044677734375,0.10247802734375,0.01702880859375,0.994384765625,[0. 0. 0. 0. 0. 0. 0. 0. 0.],0.0,-0.001953125,0.00390625,[0. 0. 0. 0. 0. 0. 0. 0. 0.],-1.9140625,-0.34375,9.65234375,[0. 0. 0. 0. 0. 0. 0. 0. 0.]
1742665781993753131,1742665781,982226242,imu_link,-0.02044677734375,0.10247802734375,0.01702880859375,0.994384765625,[0. 0. 0. 0. 0. 0. 0. 0. 0.],-0.00390625,-0.00390625,-0.005859375,[0. 0. 0. 0. 0. 0. 0. 0. 0.],-2.03125,-0.34375,9.578125,[0. 0. 0. 0. 0. 0. 0. 0. 0.]
1742665782015906872,1742665782,2093964,imu_link,-0.0205078125,0.1024169921875,0.01702880859375,0.994384765625,[0. 0. 0. 0. 0. 0. 0. 0. 0.],-0.00390625,-0.00390625,-0.005859375,[0. 0. 0. 0. 0. 0. 0. 0. 0.],-2.0703125,-0.3046875,9.5390625,[0. 0. 0. 0. 0. 0. 0. 0. 0.]
1742665782024321224,1742665782,22092131,imu_link,-0.0205078125,0.1024169921875,0.01702880859375,0.994384765625,[0. 0. 0. 0. 0. 0. 0. 0. 0.],-0.00390625,-0.00390625,-0.005859375,[0. 0. 0. 0. 0. 0. 0. 0. 0.],-2.0703125,-0.3046875,9.5390625,[0. 0. 0. 0. 0. 0. 0. 0. 0.]
1742665782059862705,1742665782,42247742,imu_link,-0.02056884765625,0.10235595703125,0.01690673828125,0.994384765625,[0. 0. 0. 0. 0. 0. 0. 0. 0.],-0.005859375,-0.00390625,-0.0078125,[0. 0. 0. 0. 0. 0. 0. 0. 0.],-1.9921875,-0.3046875,9.609375,[0. 0. 0. 0. 0. 0. 0. 0. 0.]
1742665782064658835,1742665782,62488557,imu_link,-0.02056884765625,0.10235595703125,0.01690673828125,0.994384765625,[0. 0. 0. 0. 0. 0. 0. 0. 0.],-0.005859375,-0.00390625,-0.0078125,[0. 0. 0. 0. 0. 0. 0. 0. 0.],-1.9921875,-0.3046875,9.609375,[0. 0. 0. 0. 0. 0. 0. 0. 0.]
1742665782093979816,1742665782,82181353,imu_link,-0.02056884765625,0.10235595703125,0.01690673828125,0.994384765625,[0. 0. 0. 0. 0. 0. 0. 0. 0.],-0.00390625,-0.00390625,-0.001953125,[0. 0. 0. 0. 0. 0. 0. 0. 0.],-2.03125,-0.421875,9.58203125,[0. 0. 0. 0. 0. 0. 0. 0. 0.]
1742665782115777631,1742665782,102096557,imu_link,-0.02056884765625,0.102294921875,0.016845703125,0.994384765625,[0. 0. 0. 0. 0. 0. 0. 0. 0.],-0.00390625,-0.00390625,-0.001953125,[0. 0. 0. 0. 0. 0. 0. 0. 0.],-2.03125,-0.3828125,9.5390625,[0. 0. 0. 0. 0. 0. 0. 0. 0.]
1742665782124666668,1742665782,122128205,imu_link,-0.02056884765625,0.102294921875,0.016845703125,0.994384765625,[0. 0. 0. 0. 0. 0. 0. 0. 0.],-0.00390625,-0.00390625,-0.001953125,[0. 0. 0. 0. 0. 0. 0. 0. 0.],-2.03125,-0.3828125,9.5390625,[0. 0. 0. 0. 0. 0. 0. 0. 0.]
1742665782159906779,1742665782,142204483,imu_link,-0.02056884765625,0.102294921875,0.01690673828125,0.994384765625,[0. 0. 0. 0. 0. 0. 0. 0. 0.],-0.00390625,-0.00390625,0.001953125,[0. 0. 0. 0. 0. 0. 0. 0. 0.],-1.9921875,-0.3828125,9.578125,[0. 0. 0. 0. 0. 0. 0. 0. 0.]
1742665782169496298,1742665782,165987724,imu_link,-0.02056884765625,0.102294921875,0.01690673828125,0.994384765625,[0. 0. 0. 0. 0. 0. 0. 0. 0.],-0.00390625,-0.00390625,0.001953125,[0. 0. 0. 0. 0. 0. 0. 0. 0.],-1.9921875,-0.34375,9.578125,[0. 0. 0. 0. 0. 0. 0. 0. 0.]
1742665782190344464,1742665782,182183964,imu_link,-0.02056884765625,0.102294921875,0.01690673828125,0.994384765625,[0. 0. 0. 0. 0. 0. 0. 0. 0.],-0.005859375,-0.001953125,0.0,[0. 0. 0. 0. 0. 0. 0. 0. 0.],-1.9921875,-0.34375,9.578125,[0. 0. 0. 0. 0. 0. 0. 0. 0.]
1742665782214467298,1742665782,202116409,imu_link,-0.02056884765625,0.102294921875,0.016845703125,0.994384765625,[0. 0. 0. 0. 0. 0. 0. 0. 0.],-0.005859375,-0.001953125,0.0,[0. 0. 0. 0. 0. 0. 0. 0. 0.],-1.9921875,-0.34375,9.5,[0. 0. 0. 0. 0. 0. 0. 0. 0.]
1742665782224298779,1742665782,222327038,imu_link,-0.02056884765625,0.102294921875,0.016845703125,0.994384765625,[0. 0. 0. 0. 0. 0. 0. 0. 0.],-0.005859375,-0.001953125,0.0,[0. 0. 0. 0. 0. 0. 0. 0. 0.],-1.9921875,-0.34375,9.5,[0. 0. 0. 0. 0. 0. 0. 0. 0.]
1742665782244338686,1742665782,242151964,imu_link,-0.02056884765625,0.102294921875,0.016845703125,0.994384765625,[0. 0. 0. 0. 0. 0. 0. 0. 0.],-0.013671875,-0.00390625,0.0,[0. 0. 0. 0. 0. 0. 0. 0. 0.],-1.953125,-0.3828125,9.61328125,[0. 0. 0. 0. 0. 0. 0. 0. 0.]
1742665782281211298,1742665782,262210760,imu_link,-0.02056884765625,0.10223388671875,0.016845703125,0.994384765625,[0. 0. 0. 0. 0. 0. 0. 0. 0.],-0.013671875,0.00390625,-0.001953125,[0. 0. 0. 0. 0. 0. 0. 0. 0.],-1.9921875,-0.34375,9.578125,[0. 0. 0. 0. 0. 0. 0. 0. 0.]
1742665782285658779,1742665782,283899057,imu_link,-0.02056884765625,0.10223388671875,0.016845703125,0.994384765625,[0. 0. 0. 0. 0. 0. 0. 0. 0.],-0.013671875,0.00390625,-0.001953125,[0. 0. 0. 0. 0. 0. 0. 0. 0.],-1.9921875,-0.34375,9.578125,[0. 0. 0. 0. 0. 0. 0. 0. 0.]
1742665782314596575,1742665782,302210057,imu_link,-0.02056884765625,0.102294921875,0.01678466796875,0.994384765625,[0. 0. 0. 0. 0. 0. 0. 0. 0.],-0.013671875,0.00390625,-0.001953125,[0. 0. 0. 0. 0. 0. 0. 0. 0.],-2.03125,-0.4609375,9.578125,[0. 0. 0. 0. 0. 0. 0. 0. 0.]
1742665782333511094,1742665782,322136575,imu_link,-0.02056884765625,0.102294921875,0.01678466796875,0.994384765625,[0. 0. 0. 0. 0. 0. 0. 0. 0.],-0.01171875,-0.005859375,0.001953125,[0. 0. 0. 0. 0. 0. 0. 0. 0.],-1.953125,-0.34375,9.578125,[0. 0. 0. 0. 0. 0. 0. 0. 0.]
1742665782344304372,1742665782,342508001,imu_link,-0.02056884765625,0.102294921875,0.01678466796875,0.994384765625,[0. 0. 0. 0. 0. 0. 0. 0. 0.],-0.01171875,-0.005859375,0.001953125,[0. 0. 0. 0. 0. 0. 0. 0. 0.],-1.953125,-0.34375,9.578125,[0. 0. 0. 0. 0. 0. 0. 0. 0.]
1742665782380849260,1742665782,362408112,imu_link,-0.02056884765625,0.10223388671875,0.016845703125,0.994384765625,[0. 0. 0. 0. 0. 0. 0. 0. 0.],0.0,-0.001953125,0.005859375,[0. 0. 0. 0. 0. 0. 0. 0. 0.],-1.953125,-0.3828125,9.5390625,[0. 0. 0. 0. 0. 0. 0. 0. 0.]
1742665782390052557,1742665782,386697946,imu_link,-0.02056884765625,0.10223388671875,0.016845703125,0.994384765625,[0. 0. 0. 0. 0. 0. 0. 0. 0.],0.0,-0.001953125,0.005859375,[0. 0. 0. 0. 0. 0. 0. 0. 0.],-1.9921875,-0.3828125,9.578125,[0. 0. 0. 0. 0. 0. 0. 0. 0.]
1742665782419448334,1742665782,402220983,imu_link,-0.02044677734375,0.10223388671875,0.0169677734375,0.994384765625,[0. 0. 0. 0. 0. 0. 0. 0. 0.],0.0,-0.001953125,0.005859375,[0. 0. 0. 0. 0. 0. 0. 0. 0.],-2.0703125,-0.34375,9.609375,[0. 0. 0. 0. 0. 0. 0. 0. 0.]
1742665782424578612,1742665782,422111501,imu_link,-0.02044677734375,0.10223388671875,0.0169677734375,0.994384765625,[0. 0. 0. 0. 0. 0. 0. 0. 0.],0.0,-0.001953125,0.005859375,[0. 0. 0. 0. 0. 0. 0. 0. 0.],-2.0703125,-0.34375,9.609375,[0. 0. 0. 0. 0. 0. 0. 0. 0.]
1742665782444044686,1742665782,442153409,imu_link,-0.02044677734375,0.10223388671875,0.0169677734375,0.994384765625,[0. 0. 0. 0. 0. 0. 0. 0. 0.],0.0,-0.00390625,0.005859375,[0. 0. 0. 0. 0. 0. 0. 0. 0.],-2.0703125,-0.34375,9.609375,[0. 0. 0. 0. 0. 0. 0. 0. 0.]
1742665782483954353,1742665782,462098353,imu_link,-0.0203857421875,0.1021728515625,0.01702880859375,0.994384765625,[0. 0. 0. 0. 0. 0. 0. 0. 0.],0.0,-0.00390625,0.005859375,[0. 0. 0. 0. 0. 0. 0. 0. 0.],-2.10546875,-0.34375,9.54296875,[0. 0. 0. 0. 0. 0. 0. 0. 0.]
1742665782489393390,1742665782,485975038,imu_link,-0.0203857421875,0.1021728515625,0.01702880859375,0.994384765625,[0. 0. 0. 0. 0. 0. 0. 0. 0.],0.00390625,-0.00390625,0.0,[0. 0. 0. 0. 0. 0. 0. 0. 0.],-2.0703125,-0.34375,9.54296875,[0. 0. 0. 0. 0. 0. 0. 0. 0.]
1742665782518592464,1742665782,502157853,imu_link,-0.020263671875,0.10205078125,0.01708984375,0.99444580078125,[0. 0. 0. 0. 0. 0. 0. 0. 0.],0.00390625,-0.00390625,0.0,[0. 0. 0. 0. 0. 0. 0. 0. 0.],-2.03125,-0.3828125,9.61328125,[0. 0. 0. 0. 0. 0. 0. 0. 0.]
1742665782524421797,1742665782,522152705,imu_link,-0.020263671875,0.10205078125,0.01708984375,0.99444580078125,[0. 0. 0. 0. 0. 0. 0. 0. 0.],0.00390625,-0.00390625,0.0,[0. 0. 0. 0. 0. 0. 0. 0. 0.],-2.03125,-0.3828125,9.61328125,[0. 0. 0. 0. 0. 0. 0. 0. 0.]
1742665782558216353,1742665782,542145853,imu_link,-0.02020263671875,0.10205078125,0.01708984375,0.99444580078125,[0. 0. 0. 0. 0. 0. 0. 0. 0.],0.005859375,-0.001953125,0.0,[0. 0. 0. 0. 0. 0. 0. 0. 0.],-1.9921875,-0.34375,9.578125,[0. 0. 0. 0. 0. 0. 0. 0. 0.]
1742665782563917983,1742665782,562096464,imu_link,-0.02020263671875,0.10205078125,0.01708984375,0.99444580078125,[0. 0. 0. 0. 0. 0. 0. 0. 0.],0.005859375,-0.001953125,0.0,[0. 0. 0. 0. 0. 0. 0. 0. 0.],-1.9921875,-0.34375,9.578125,[0. 0. 0. 0. 0. 0. 0. 0. 0.]
1742665782593491538,1742665782,582365038,imu_link,-0.02020263671875,0.10205078125,0.01708984375,0.99444580078125,[0. 0. 0. 0. 0. 0. 0. 0. 0.],0.0,-0.001953125,0.0,[0. 0. 0. 0. 0. 0. 0. 0. 0.],-1.953125,-0.3046875,9.54296875,[0. 0. 0. 0. 0. 0. 0. 0. 0.]
1742665782614737038,1742665782,602106464,imu_link,-0.02020263671875,0.10205078125,0.01715087890625,0.99444580078125,[0. 0. 0. 0. 0. 0. 0. 0. 0.],0.0,-0.001953125,0.0,[0. 0. 0. 0. 0. 0. 0. 0. 0.],-1.87890625,-0.34375,9.609375,[0. 0. 0. 0. 0. 0. 0. 0. 0.]
1742665782624276890,1742665782,622229760,imu_link,-0.02020263671875,0.10205078125,0.01715087890625,0.99444580078125,[0. 0. 0. 0. 0. 0. 0. 0. 0.],0.0,-0.001953125,0.0,[0. 0. 0. 0. 0. 0. 0. 0. 0.],-1.87890625,-0.34375,9.609375,[0. 0. 0. 0. 0. 0. 0. 0. 0.]
1742665782657705890,1742665782,642100057,imu_link,-0.0201416015625,0.10205078125,0.01727294921875,0.99444580078125,[0. 0. 0. 0. 0. 0. 0. 0. 0.],0.001953125,0.0,0.00390625,[0. 0. 0. 0. 0. 0. 0. 0. 0.],-1.9140625,-0.34375,9.5390625,[0. 0. 0. 0. 0. 0. 0. 0. 0.]
1742665782663931927,1742665782,662090168,imu_link,-0.0201416015625,0.10205078125,0.01727294921875,0.99444580078125,[0. 0. 0. 0. 0. 0. 0. 0. 0.],0.001953125,0.0,0.00390625,[0. 0. 0. 0. 0. 0. 0. 0. 0.],-1.9140625,-0.34375,9.5390625,[0. 0. 0. 0. 0. 0. 0. 0. 0.]
1742665782693216742,1742665782,682212038,imu_link,-0.0201416015625,0.10205078125,0.01727294921875,0.99444580078125,[0. 0. 0. 0. 0. 0. 0. 0. 0.],0.0078125,0.0,-0.001953125,[0. 0. 0. 0. 0. 0. 0. 0. 0.],-1.953125,-0.34375,9.5,[0. 0. 0. 0. 0. 0. 0. 0. 0.]
1742665782714912890,1742665782,702135445,imu_link,-0.0201416015625,0.10198974609375,0.01727294921875,0.99444580078125,[0. 0. 0. 0. 0. 0. 0. 0. 0.],0.0078125,0.0,-0.001953125,[0. 0. 0. 0. 0. 0. 0. 0. 0.],-2.03125,-0.34375,9.6875,[0. 0. 0. 0. 0. 0. 0. 0. 0.]
1742665782724576853,1742665782,722301853,imu_link,-0.0201416015625,0.10198974609375,0.01727294921875,0.99444580078125,[0. 0. 0. 0. 0. 0. 0. 0. 0.],0.0078125,0.0,-0.001953125,[0. 0. 0. 0. 0. 0. 0. 0. 0.],-2.03125,-0.34375,9.6875,[0. 0. 0. 0. 0. 0. 0. 0. 0.]
1742665782744242464,1742665782,742114297,imu_link,-0.0201416015625,0.10198974609375,0.01727294921875,0.99444580078125,[0. 0. 0. 0. 0. 0. 0. 0. 0.],0.013671875,0.001953125,0.0,[0. 0. 0. 0. 0. 0. 0. 0. 0.],-2.03125,-0.3828125,9.5,[0. 0. 0. 0. 0. 0. 0. 0. 0.]
1742665782769083371,1742665782,762166927,imu_link,-0.02001953125,0.1019287109375,0.01727294921875,0.99444580078125,[0. 0. 0. 0. 0. 0. 0. 0. 0.],0.013671875,0.001953125,0.0,[0. 0. 0. 0. 0. 0. 0. 0. 0.],-2.03125,-0.34375,9.5390625,[0. 0. 0. 0. 0. 0. 0. 0. 0.]
1742665782789118538,1742665782,782228316,imu_link,-0.02001953125,0.1019287109375,0.01727294921875,0.99444580078125,[0. 0. 0. 0. 0. 0. 0. 0. 0.],0.015625,0.001953125,0.005859375,[0. 0. 0. 0. 0. 0. 0. 0. 0.],-2.03125,-0.34375,9.5390625,[0. 0. 0. 0. 0. 0. 0. 0. 0.]
1742665782814913593,1742665782,802389816,imu_link,-0.0198974609375,0.1019287109375,0.01739501953125,0.99444580078125,[0. 0. 0. 0. 0. 0. 0. 0. 0.],0.015625,0.001953125,0.005859375,[0. 0. 0. 0. 0. 0. 0. 0. 0.],-2.10546875,-0.34375,9.609375,[0. 0. 0. 0. 0. 0. 0. 0. 0.]
1742665782824635853,1742665782,822114982,imu_link,-0.0198974609375,0.1019287109375,0.01739501953125,0.99444580078125,[0. 0. 0. 0. 0. 0. 0. 0. 0.],0.015625,0.001953125,0.005859375,[0. 0. 0. 0. 0. 0. 0. 0. 0.],-2.10546875,-0.34375,9.609375,[0. 0. 0. 0. 0. 0. 0. 0. 0.]
1742665782843981964,1742665782,842148797,imu_link,-0.0198974609375,0.1019287109375,0.01739501953125,0.99444580078125,[0. 0. 0. 0. 0. 0. 0. 0. 0.],0.0078125,-0.001953125,-0.00390625,[0. 0. 0. 0. 0. 0. 0. 0. 0.],-2.03125,-0.3828125,9.5,[0. 0. 0. 0. 0. 0. 0. 0. 0.]
1742665782869527538,1742665782,862119686,imu_link,-0.01983642578125,0.10186767578125,0.017333984375,0.99444580078125,[0. 0. 0. 0. 0. 0. 0. 0. 0.],0.0078125,-0.001953125,-0.00390625,[0. 0. 0. 0. 0. 0. 0. 0. 0.],-1.9921875,-0.3828125,9.578125,[0. 0. 0. 0. 0. 0. 0. 0. 0.]
1742665782892962945,1742665782,882239075,imu_link,-0.01983642578125,0.10186767578125,0.017333984375,0.99444580078125,[0. 0. 0. 0. 0. 0. 0. 0. 0.],0.0078125,0.001953125,0.0,[0. 0. 0. 0. 0. 0. 0. 0. 0.],-1.9921875,-0.3828125,9.578125,[0. 0. 0. 0. 0. 0. 0. 0. 0.]
1742665782914168538,1742665782,902338686,imu_link,-0.019775390625,0.1019287109375,0.017333984375,0.99444580078125,[0. 0. 0. 0. 0. 0. 0. 0. 0.],0.0078125,0.001953125,0.0,[0. 0. 0. 0. 0. 0. 0. 0. 0.],-2.03125,-0.3046875,9.609375,[0. 0. 0. 0. 0. 0. 0. 0. 0.]
1742665782933578353,1742665782,922193019,imu_link,-0.019775390625,0.1019287109375,0.017333984375,0.99444580078125,[0. 0. 0. 0. 0. 0. 0. 0. 0.],0.00390625,0.0,0.0,[0. 0. 0. 0. 0. 0. 0. 0. 0.],-2.03125,-0.3046875,9.54296875,[0. 0. 0. 0. 0. 0. 0. 0. 0.]
1742665782944039260,1742665782,942186297,imu_link,-0.019775390625,0.1019287109375,0.017333984375,0.99444580078125,[0. 0. 0. 0. 0. 0. 0. 0. 0.],0.00390625,0.0,0.0,[0. 0. 0. 0. 0. 0. 0. 0. 0.],-2.03125,-0.3046875,9.54296875,[0. 0. 0. 0. 0. 0. 0. 0. 0.]
1742665782964303075,1742665782,962499445,imu_link,-0.019775390625,0.1019287109375,0.017333984375,0.99444580078125,[0. 0. 0. 0. 0. 0. 0. 0. 0.],0.00390625,0.0,0.0,[0. 0. 0. 0. 0. 0. 0. 0. 0.],-1.953125,-0.421875,9.58203125,[0. 0. 0. 0. 0. 0. 0. 0. 0.]
1742665782992865575,1742665782,982671723,imu_link,-0.019775390625,0.1019287109375,0.017333984375,0.99444580078125,[0. 0. 0. 0. 0. 0. 0. 0. 0.],0.009765625,-0.001953125,-0.001953125,[0. 0. 0. 0. 0. 0. 0. 0. 0.],-1.87890625,-0.3828125,9.609375,[0. 0. 0. 0. 0. 0. 0. 0. 0.]
1742665783007862667,1742665783,4275779,imu_link,-0.0196533203125,0.1019287109375,0.01727294921875,0.99444580078125,[0. 0. 0. 0. 0. 0. 0. 0. 0.],0.009765625,-0.001953125,-0.001953125,[0. 0. 0. 0. 0. 0. 0. 0. 0.],-1.87890625,-0.3828125,9.609375,[0. 0. 0. 0. 0. 0. 0. 0. 0.]
1742665783032788390,1742665783,22144742,imu_link,-0.0196533203125,0.1019287109375,0.01727294921875,0.99444580078125,[0. 0. 0. 0. 0. 0. 0. 0. 0.],0.0078125,-0.005859375,-0.001953125,[0. 0. 0. 0. 0. 0. 0. 0. 0.],-1.953125,-0.34375,9.5,[0. 0. 0. 0. 0. 0. 0. 0. 0.]
1742665783044610130,1742665783,42565019,imu_link,-0.0196533203125,0.1019287109375,0.01727294921875,0.99444580078125,[0. 0. 0. 0. 0. 0. 0. 0. 0.],0.0078125,-0.005859375,-0.001953125,[0. 0. 0. 0. 0. 0. 0. 0. 0.],-1.953125,-0.34375,9.5,[0. 0. 0. 0. 0. 0. 0. 0. 0.]
1742665783064001445,1742665783,62144260,imu_link,-0.01953125,0.1019287109375,0.01727294921875,0.99444580078125,[0. 0. 0. 0. 0. 0. 0. 0. 0.],0.0078125,-0.005859375,-0.001953125,[0. 0. 0. 0. 0. 0. 0. 0. 0.],-1.9921875,-0.3046875,9.69140625,[0. 0. 0. 0. 0. 0. 0. 0. 0.]
1742665783092666760,1742665783,82637686,imu_link,-0.01953125,0.1019287109375,0.01727294921875,0.99444580078125,[0. 0. 0. 0. 0. 0. 0. 0. 0.],0.005859375,-0.00390625,0.001953125,[0. 0. 0. 0. 0. 0. 0. 0. 0.],-2.03125,-0.34375,9.578125,[0. 0. 0. 0. 0. 0. 0. 0. 0.]
1742665783118019056,1742665783,102099538,imu_link,-0.0194091796875,0.10186767578125,0.01727294921875,0.99444580078125,[0. 0. 0. 0. 0. 0. 0. 0. 0.],0.005859375,-0.00390625,0.001953125,[0. 0. 0. 0. 0. 0. 0. 0. 0.],-2.0703125,-0.3046875,9.5390625,[0. 0. 0. 0. 0. 0. 0. 0. 0.]
1742665783129544445,1742665783,122109890,imu_link,-0.0194091796875,0.10186767578125,0.01727294921875,0.99444580078125,[0. 0. 0. 0. 0. 0. 0. 0. 0.],0.005859375,-0.00390625,0.001953125,[0. 0. 0. 0. 0. 0. 0. 0. 0.],-2.0703125,-0.3046875,9.5390625,[0. 0. 0. 0. 0. 0. 0. 0. 0.]
1742665783157748538,1742665783,142113204,imu_link,-0.0194091796875,0.101806640625,0.01715087890625,0.99444580078125,[0. 0. 0. 0. 0. 0. 0. 0. 0.],0.0,-0.00390625,-0.00390625,[0. 0. 0. 0. 0. 0. 0. 0. 0.],-2.03125,-0.3828125,9.578125,[0. 0. 0. 0. 0. 0. 0. 0. 0.]
1742665783163915778,1742665783,162087982,imu_link,-0.0194091796875,0.101806640625,0.01715087890625,0.99444580078125,[0. 0. 0. 0. 0. 0. 0. 0. 0.],0.0,-0.00390625,-0.00390625,[0. 0. 0. 0. 0. 0. 0. 0. 0.],-2.03125,-0.3828125,9.578125,[0. 0. 0. 0. 0. 0. 0. 0. 0.]
1742665783192240927,1742665783,182203167,imu_link,-0.0194091796875,0.101806640625,0.01715087890625,0.99444580078125,[0. 0. 0. 0. 0. 0. 0. 0. 0.],0.0,-0.005859375,0.00390625,[0. 0. 0. 0. 0. 0. 0. 0. 0.],-1.9921875,-0.3828125,9.578125,[0. 0. 0. 0. 0. 0. 0. 0. 0.]
1742665783215188167,1742665783,202366482,imu_link,-0.01934814453125,0.10174560546875,0.0172119140625,0.99444580078125,[0. 0. 0. 0. 0. 0. 0. 0. 0.],0.0,-0.005859375,0.00390625,[0. 0. 0. 0. 0. 0. 0. 0. 0.],-1.953125,-0.3046875,9.54296875,[0. 0. 0. 0. 0. 0. 0. 0. 0.]
1742665783228295371,1742665783,222119112,imu_link,-0.01934814453125,0.10174560546875,0.0172119140625,0.99444580078125,[0. 0. 0. 0. 0. 0. 0. 0. 0.],0.0,-0.005859375,0.00390625,[0. 0. 0. 0. 0. 0. 0. 0. 0.],-1.953125,-0.3046875,9.54296875,[0. 0. 0. 0. 0. 0. 0. 0. 0.]
1742665783257812204,1742665783,242117852,imu_link,-0.019287109375,0.10174560546875,0.01715087890625,0.9945068359375,[0. 0. 0. 0. 0. 0. 0. 0. 0.],-0.001953125,-0.00390625,-0.001953125,[0. 0. 0. 0. 0. 0. 0. 0. 0.],-1.9921875,-0.3046875,9.6484375,[0. 0. 0. 0. 0. 0. 0. 0. 0.]
1742665783264283852,1742665783,262116964,imu_link,-0.019287109375,0.10174560546875,0.01715087890625,0.9945068359375,[0. 0. 0. 0. 0. 0. 0. 0. 0.],-0.001953125,-0.00390625,-0.001953125,[0. 0. 0. 0. 0. 0. 0. 0. 0.],-1.9921875,-0.3046875,9.6484375,[0. 0. 0. 0. 0. 0. 0. 0. 0.]
1742665783288840519,1742665783,282170352,imu_link,-0.019287109375,0.10174560546875,0.01715087890625,0.9945068359375,[0. 0. 0. 0. 0. 0. 0. 0. 0.],-0.001953125,-0.00390625,0.0,[0. 0. 0. 0. 0. 0. 0. 0. 0.],-1.953125,-0.34375,9.5390625,[0. 0. 0. 0. 0. 0. 0. 0. 0.]
1742665783316758704,1742665783,302212093,imu_link,-0.01922607421875,0.10174560546875,0.01715087890625,0.9945068359375,[0. 0. 0. 0. 0. 0. 0. 0. 0.],-0.001953125,-0.00390625,0.0,[0. 0. 0. 0. 0. 0. 0. 0. 0.],-1.9140625,-0.3046875,9.54296875,[0. 0. 0. 0. 0. 0. 0. 0. 0.]
1742665783328382112,1742665783,322096704,imu_link,-0.01922607421875,0.10174560546875,0.01715087890625,0.9945068359375,[0. 0. 0. 0. 0. 0. 0. 0. 0.],-0.001953125,-0.00390625,0.0,[0. 0. 0. 0. 0. 0. 0. 0. 0.],-1.9140625,-0.3046875,9.54296875,[0. 0. 0. 0. 0. 0. 0. 0. 0.]
1742665783353655815,1742665783,342097408,imu_link,-0.019287109375,0.1016845703125,0.0169677734375,0.9945068359375,[0. 0. 0. 0. 0. 0. 0. 0. 0.],-0.009765625,-0.001953125,-0.005859375,[0. 0. 0. 0. 0. 0. 0. 0. 0.],-1.953125,-0.34375,9.65234375,[0. 0. 0. 0. 0. 0. 0. 0. 0.]
1742665783369762167,1742665783,362139760,imu_link,-0.019287109375,0.1016845703125,0.0169677734375,0.9945068359375,[0. 0. 0. 0. 0. 0. 0. 0. 0.],-0.009765625,-0.001953125,-0.005859375,[0. 0. 0. 0. 0. 0. 0. 0. 0.],-1.9921875,-0.3828125,9.5390625,[0. 0. 0. 0. 0. 0. 0. 0. 0.]
1742665783388792075,1742665783,382120556,imu_link,-0.019287109375,0.1016845703125,0.0169677734375,0.9945068359375,[0. 0. 0. 0. 0. 0. 0. 0. 0.],-0.0078125,0.001953125,-0.00390625,[0. 0. 0. 0. 0. 0. 0. 0. 0.],-1.9921875,-0.3828125,9.5390625,[0. 0. 0. 0. 0. 0. 0. 0. 0.]
1742665783417625464,1742665783,402336889,imu_link,-0.019287109375,0.101806640625,0.016845703125,0.9945068359375,[0. 0. 0. 0. 0. 0. 0. 0. 0.],-0.0078125,0.001953125,-0.00390625,[0. 0. 0. 0. 0. 0. 0. 0. 0.],-2.03125,-0.3046875,9.58203125,[0. 0. 0. 0. 0. 0. 0. 0. 0.]
1742665783433317963,1742665783,422621593,imu_link,-0.019287109375,0.101806640625,0.016845703125,0.9945068359375,[0. 0. 0. 0. 0. 0. 0. 0. 0.],-0.005859375,0.0,-0.0078125,[0. 0. 0. 0. 0. 0. 0. 0. 0.],-2.03125,-0.3046875,9.58203125,[0. 0. 0. 0. 0. 0. 0. 0. 0.]
1742665783453718778,1742665783,442160501,imu_link,-0.019287109375,0.10186767578125,0.0167236328125,0.99444580078125,[0. 0. 0. 0. 0. 0. 0. 0. 0.],-0.005859375,0.0,-0.0078125,[0. 0. 0. 0. 0. 0. 0. 0. 0.],-2.03125,-0.26953125,9.578125,[0. 0. 0. 0. 0. 0. 0. 0. 0.]
1742665783464862519,1742665783,462108908,imu_link,-0.019287109375,0.10186767578125,0.0167236328125,0.99444580078125,[0. 0. 0. 0. 0. 0. 0. 0. 0.],-0.005859375,0.0,-0.0078125,[0. 0. 0. 0. 0. 0. 0. 0. 0.],-1.9921875,-0.3828125,9.4609375,[0. 0. 0. 0. 0. 0. 0. 0. 0.]
1742665783493508649,1742665783,482188334,imu_link,-0.019287109375,0.10186767578125,0.0167236328125,0.99444580078125,[0. 0. 0. 0. 0. 0. 0. 0. 0.],-0.001953125,-0.00390625,-0.001953125,[0. 0. 0. 0. 0. 0. 0. 0. 0.],-1.9921875,-0.3828125,9.4609375,[0. 0. 0. 0. 0. 0. 0. 0. 0.]
1742665783509252352,1742665783,505672723,imu_link,-0.01922607421875,0.10186767578125,0.0166015625,0.99444580078125,[0. 0. 0. 0. 0. 0. 0. 0. 0.],-0.001953125,-0.00390625,-0.001953125,[0. 0. 0. 0. 0. 0. 0. 0. 0.],-1.953125,-0.3828125,9.578125,[0. 0. 0. 0. 0. 0. 0. 0. 0.]
1742665783532169519,1742665783,522217149,imu_link,-0.01922607421875,0.10186767578125,0.0166015625,0.99444580078125,[0. 0. 0. 0. 0. 0. 0. 0. 0.],0.001953125,0.001953125,0.0,[0. 0. 0. 0. 0. 0. 0. 0. 0.],-1.9921875,-0.3828125,9.65234375,[0. 0. 0. 0. 0. 0. 0. 0. 0.]
1742665783557551815,1742665783,542335519,imu_link,-0.0191650390625,0.10186767578125,0.01654052734375,0.99444580078125,[0. 0. 0. 0. 0. 0. 0. 0. 0.],0.001953125,0.001953125,0.0,[0. 0. 0. 0. 0. 0. 0. 0. 0.],-1.9921875,-0.3828125,9.65234375,[0. 0. 0. 0. 0. 0. 0. 0. 0.]
1742665783564960704,1742665783,562217445,imu_link,-0.0191650390625,0.10186767578125,0.01654052734375,0.99444580078125,[0. 0. 0. 0. 0. 0. 0. 0. 0.],0.001953125,0.001953125,0.0,[0. 0. 0. 0. 0. 0. 0. 0. 0.],-2.14453125,-0.34375,9.5390625,[0. 0. 0. 0. 0. 0. 0. 0. 0.]
1742665783592133186,1742665783,582228667,imu_link,-0.0191650390625,0.10186767578125,0.01654052734375,0.99444580078125,[0. 0. 0. 0. 0. 0. 0. 0. 0.],-0.001953125,-0.001953125,0.0,[0. 0. 0. 0. 0. 0. 0. 0. 0.],-2.0703125,-0.3046875,9.5390625,[0. 0. 0. 0. 0. 0. 0. 0. 0.]
1742665783607547926,1742665783,603742815,imu_link,-0.01910400390625,0.10186767578125,0.01654052734375,0.9945068359375,[0. 0. 0. 0. 0. 0. 0. 0. 0.],-0.001953125,-0.001953125,0.0,[0. 0. 0. 0. 0. 0. 0. 0. 0.],-2.0703125,-0.3046875,9.5390625,[0. 0. 0. 0. 0. 0. 0. 0. 0.]
1742665783632820389,1742665783,622224112,imu_link,-0.01910400390625,0.10186767578125,0.01654052734375,0.9945068359375,[0. 0. 0. 0. 0. 0. 0. 0. 0.],-0.00390625,-0.001953125,-0.001953125,[0. 0. 0. 0. 0. 0. 0. 0. 0.],-1.9921875,-0.3046875,9.609375,[0. 0. 0. 0. 0. 0. 0. 0. 0.]
1742665783655795334,1742665783,642102093,imu_link,-0.01904296875,0.10186767578125,0.0164794921875,0.9945068359375,[0. 0. 0. 0. 0. 0. 0. 0. 0.],-0.00390625,-0.001953125,-0.001953125,[0. 0. 0. 0. 0. 0. 0. 0. 0.],-1.9921875,-0.3046875,9.609375,[0. 0. 0. 0. 0. 0. 0. 0. 0.]
1742665783665578593,1742665783,662207297,imu_link,-0.01904296875,0.10186767578125,0.0164794921875,0.9945068359375,[0. 0. 0. 0. 0. 0. 0. 0. 0.],-0.00390625,-0.001953125,-0.001953125,[0. 0. 0. 0. 0. 0. 0. 0. 0.],-1.953125,-0.34375,9.5390625,[0. 0. 0. 0. 0. 0. 0. 0. 0.]
1742665783703046834,1742665783,682461834,imu_link,-0.01904296875,0.1019287109375,0.016357421875,0.9945068359375,[0. 0. 0. 0. 0. 0. 0. 0. 0.],-0.00390625,-0.001953125,-0.01171875,[0. 0. 0. 0. 0. 0. 0. 0. 0.],-1.9140625,-0.34375,9.61328125,[0. 0. 0. 0. 0. 0. 0. 0. 0.]
1742665783712288278,1742665783,705691519,imu_link,-0.01904296875,0.1019287109375,0.016357421875,0.9945068359375,[0. 0. 0. 0. 0. 0. 0. 0. 0.],-0.00390625,-0.001953125,-0.01171875,[0. 0. 0. 0. 0. 0. 0. 0. 0.],-1.9140625,-0.34375,9.61328125,[0. 0. 0. 0. 0. 0. 0. 0. 0.]
1742665783730468408,1742665783,722328223,imu_link,-0.01904296875,0.1019287109375,0.016357421875,0.9945068359375,[0. 0. 0. 0. 0. 0. 0. 0. 0.],-0.0078125,-0.001953125,0.0,[0. 0. 0. 0. 0. 0. 0. 0. 0.],-1.9140625,-0.3828125,9.578125,[0. 0. 0. 0. 0. 0. 0. 0. 0.]
1742665783756384463,1742665783,742101297,imu_link,-0.01898193359375,0.1019287109375,0.016357421875,0.99444580078125,[0. 0. 0. 0. 0. 0. 0. 0. 0.],-0.0078125,-0.001953125,0.0,[0. 0. 0. 0. 0. 0. 0. 0. 0.],-1.9140625,-0.34375,9.5390625,[0. 0. 0. 0. 0. 0. 0. 0. 0.]
1742665783765251574,1742665783,762144723,imu_link,-0.01898193359375,0.1019287109375,0.016357421875,0.99444580078125,[0. 0. 0. 0. 0. 0. 0. 0. 0.],-0.0078125,-0.001953125,0.0,[0. 0. 0. 0. 0. 0. 0. 0. 0.],-1.9140625,-0.34375,9.5390625,[0. 0. 0. 0. 0. 0. 0. 0. 0.]
1742665783803167537,1742665783,782385130,imu_link,-0.01910400390625,0.1019287109375,0.01617431640625,0.99444580078125,[0. 0. 0. 0. 0. 0. 0. 0. 0.],-0.01171875,0.0,-0.005859375,[0. 0. 0. 0. 0. 0. 0. 0. 0.],-1.953125,-0.34375,9.65234375,[0. 0. 0. 0. 0. 0. 0. 0. 0.]
1742665783813859482,1742665783,810620667,imu_link,-0.01910400390625,0.1019287109375,0.01617431640625,0.99444580078125,[0. 0. 0. 0. 0. 0. 0. 0. 0.],-0.01171875,0.0,-0.005859375,[0. 0. 0. 0. 0. 0. 0. 0. 0.],-2.0703125,-0.34375,9.54296875,[0. 0. 0. 0. 0. 0. 0. 0. 0.]
1742665783830051426,1742665783,822186204,imu_link,-0.01910400390625,0.1019287109375,0.01617431640625,0.99444580078125,[0. 0. 0. 0. 0. 0. 0. 0. 0.],-0.009765625,0.001953125,0.0,[0. 0. 0. 0. 0. 0. 0. 0. 0.],-2.0703125,-0.34375,9.54296875,[0. 0. 0. 0. 0. 0. 0. 0. 0.]
1742665783856588334,1742665783,842178667,imu_link,-0.01910400390625,0.10198974609375,0.01611328125,0.99444580078125,[0. 0. 0. 0. 0. 0. 0. 0. 0.],-0.009765625,0.001953125,0.0,[0. 0. 0. 0. 0. 0. 0. 0. 0.],-2.10546875,-0.34375,9.54296875,[0. 0. 0. 0. 0. 0. 0. 0. 0.]
1742665783866078297,1742665783,862273334,imu_link,-0.01910400390625,0.10198974609375,0.01611328125,0.99444580078125,[0. 0. 0. 0. 0. 0. 0. 0. 0.],-0.009765625,0.001953125,0.0,[0. 0. 0. 0. 0. 0. 0. 0. 0.],-2.10546875,-0.34375,9.54296875,[0. 0. 0. 0. 0. 0. 0. 0. 0.]
1742665783890173315,1742665783,882156519,imu_link,-0.01910400390625,0.10198974609375,0.01611328125,0.99444580078125,[0. 0. 0. 0. 0. 0. 0. 0. 0.],-0.005859375,0.00390625,-0.0078125,[0. 0. 0. 0. 0. 0. 0. 0. 0.],-2.10546875,-0.23046875,9.61328125,[0. 0. 0. 0. 0. 0. 0. 0. 0.]
1742665783917180482,1742665783,902320074,imu_link,-0.0191650390625,0.10198974609375,0.0159912109375,0.99444580078125,[0. 0. 0. 0. 0. 0. 0. 0. 0.],-0.005859375,0.00390625,-0.0078125,[0. 0. 0. 0. 0. 0. 0. 0. 0.],-2.03125,-0.26953125,9.5,[0. 0. 0. 0. 0. 0. 0. 0. 0.]
1742665783932435093,1742665783,922095593,imu_link,-0.0191650390625,0.10198974609375,0.0159912109375,0.99444580078125,[0. 0. 0. 0. 0. 0. 0. 0. 0.],-0.0078125,0.0,-0.0078125,[0. 0. 0. 0. 0. 0. 0. 0. 0.],-2.03125,-0.26953125,9.5,[0. 0. 0. 0. 0. 0. 0. 0. 0.]
1742665783954868982,1742665783,942153908,imu_link,-0.0191650390625,0.10198974609375,0.0157470703125,0.9945068359375,[0. 0. 0. 0. 0. 0. 0. 0. 0.],-0.0078125,0.0,-0.0078125,[0. 0. 0. 0. 0. 0. 0. 0. 0.],-1.87890625,-0.3828125,9.54296875,[0. 0. 0. 0. 0. 0. 0. 0. 0.]
1742665783970149630,1742665783,962104315,imu_link,-0.0191650390625,0.10198974609375,0.0157470703125,0.9945068359375,[0. 0. 0. 0. 0. 0. 0. 0. 0.],-0.0078125,0.0,-0.0078125,[0. 0. 0. 0. 0. 0. 0. 0. 0.],-1.83984375,-0.34375,9.73046875,[0. 0. 0. 0. 0. 0. 0. 0. 0.]
1742665783990284056,1742665783,982161167,imu_link,-0.0191650390625,0.10198974609375,0.0157470703125,0.9945068359375,[0. 0. 0. 0. 0. 0. 0. 0. 0.],-0.01171875,0.001953125,-0.001953125,[0. 0. 0. 0. 0. 0. 0. 0. 0.],-1.83984375,-0.34375,9.73046875,[0. 0. 0. 0. 0. 0. 0. 0. 0.]
