timestamp,header.stamp.sec,header.stamp.nanosec,header.frame_id,orientation.x,orientation.y,orientation.z,orientation.w,orientation_covariance,angular_velocity.x,angular_velocity.y,angular_velocity.z,angular_velocity_covariance,linear_acceleration.x,linear_acceleration.y,linear_acceleration.z,linear_acceleration_covariance
1742667635463884897,1742667635,450816823,imu_link,-0.0155029296875,0.09832763671875,-0.001220703125,0.99505615234375,[0. 0. 0. 0. 0. 0. 0. 0. 0.],0.0,0.0,0.0,[0. 0. 0. 0. 0. 0. 0. 0. 0.],-1.87890625,-0.3046875,9.578125,[0. 0. 0. 0. 0. 0. 0. 0. 0.]
1742667635482364267,1742667635,470759230,imu_link,-0.0155029296875,0.09832763671875,-0.001220703125,0.99505615234375,[0. 0. 0. 0. 0. 0. 0. 0. 0.],0.00390625,0.0,0.0,[0. 0. 0. 0. 0. 0. 0. 0. 0.],-1.9140625,-0.3046875,9.58203125,[0. 0. 0. 0. 0. 0. 0. 0. 0.]
1742667635505419174,1742667635,491052397,imu_link,-0.0155029296875,0.098388671875,-0.001220703125,0.99505615234375,[0. 0. 0. 0. 0. 0. 0. 0. 0.],0.00390625,0.0,0.0,[0. 0. 0. 0. 0. 0. 0. 0. 0.],-1.9140625,-0.3046875,9.58203125,[0. 0. 0. 0. 0. 0. 0. 0. 0.]
1742667635512692600,1742667635,510816193,imu_link,-0.0155029296875,0.098388671875,-0.001220703125,0.99505615234375,[0. 0. 0. 0. 0. 0. 0. 0. 0.],0.00390625,0.0,0.0,[0. 0. 0. 0. 0. 0. 0. 0. 0.],-1.9140625,-0.3046875,9.58203125,[0. 0. 0. 0. 0. 0. 0. 0. 0.]
1742667635541359823,1742667635,530697730,imu_link,-0.0155029296875,0.098388671875,-0.001220703125,0.99505615234375,[0. 0. 0. 0. 0. 0. 0. 0. 0.],0.00390625,0.0,-0.001953125,[0. 0. 0. 0. 0. 0. 0. 0. 0.],-1.9140625,-0.3046875,9.58203125,[0. 0. 0. 0. 0. 0. 0. 0. 0.]
1742667635561880063,1742667635,550735545,imu_link,-0.0155029296875,0.098388671875,-0.001220703125,0.99505615234375,[0. 0. 0. 0. 0. 0. 0. 0. 0.],0.00390625,0.0,-0.001953125,[0. 0. 0. 0. 0. 0. 0. 0. 0.],-1.9140625,-0.3046875,9.58203125,[0. 0. 0. 0. 0. 0. 0. 0. 0.]
1742667635580530730,1742667635,570736285,imu_link,-0.0155029296875,0.098388671875,-0.001220703125,0.99505615234375,[0. 0. 0. 0. 0. 0. 0. 0. 0.],-0.001953125,0.001953125,-0.001953125,[0. 0. 0. 0. 0. 0. 0. 0. 0.],-1.87890625,-0.3046875,9.578125,[0. 0. 0. 0. 0. 0. 0. 0. 0.]
1742667635603893415,1742667635,590805434,imu_link,-0.01556396484375,0.098388671875,-0.001220703125,0.99505615234375,[0. 0. 0. 0. 0. 0. 0. 0. 0.],-0.001953125,0.001953125,-0.001953125,[0. 0. 0. 0. 0. 0. 0. 0. 0.],-1.87890625,-0.3046875,9.578125,[0. 0. 0. 0. 0. 0. 0. 0. 0.]
1742667635612473119,1742667635,610684878,imu_link,-0.01556396484375,0.098388671875,-0.001220703125,0.99505615234375,[0. 0. 0. 0. 0. 0. 0. 0. 0.],-0.001953125,0.001953125,-0.001953125,[0. 0. 0. 0. 0. 0. 0. 0. 0.],-1.9140625,-0.3046875,9.58203125,[0. 0. 0. 0. 0. 0. 0. 0. 0.]
1742667635640651415,1742667635,630821878,imu_link,-0.01556396484375,0.098388671875,-0.001220703125,0.99505615234375,[0. 0. 0. 0. 0. 0. 0. 0. 0.],-0.00390625,-0.001953125,-0.001953125,[0. 0. 0. 0. 0. 0. 0. 0. 0.],-1.9140625,-0.3046875,9.58203125,[0. 0. 0. 0. 0. 0. 0. 0. 0.]
1742667635666107415,1742667635,650681804,imu_link,-0.015625,0.098388671875,-0.001220703125,0.99505615234375,[0. 0. 0. 0. 0. 0. 0. 0. 0.],-0.00390625,-0.001953125,-0.001953125,[0. 0. 0. 0. 0. 0. 0. 0. 0.],-1.9140625,-0.3046875,9.58203125,[0. 0. 0. 0. 0. 0. 0. 0. 0.]
1742667635676663711,1742667635,670681915,imu_link,-0.015625,0.098388671875,-0.001220703125,0.99505615234375,[0. 0. 0. 0. 0. 0. 0. 0. 0.],0.0,0.0,0.0,[0. 0. 0. 0. 0. 0. 0. 0. 0.],-1.9140625,-0.3046875,9.58203125,[0. 0. 0. 0. 0. 0. 0. 0. 0.]
1742667635706876082,1742667635,690774619,imu_link,-0.015625,0.09832763671875,-0.001220703125,0.99505615234375,[0. 0. 0. 0. 0. 0. 0. 0. 0.],0.0,0.0,0.0,[0. 0. 0. 0. 0. 0. 0. 0. 0.],-1.9140625,-0.3046875,9.58203125,[0. 0. 0. 0. 0. 0. 0. 0. 0.]
1742667635712991545,1742667635,710650063,imu_link,-0.015625,0.09832763671875,-0.001220703125,0.99505615234375,[0. 0. 0. 0. 0. 0. 0. 0. 0.],0.0,0.0,0.0,[0. 0. 0. 0. 0. 0. 0. 0. 0.],-1.9140625,-0.3046875,9.58203125,[0. 0. 0. 0. 0. 0. 0. 0. 0.]
1742667635741062489,1742667635,730792526,imu_link,-0.015625,0.09832763671875,-0.001220703125,0.99505615234375,[0. 0. 0. 0. 0. 0. 0. 0. 0.],-0.001953125,-0.00390625,-0.001953125,[0. 0. 0. 0. 0. 0. 0. 0. 0.],-1.9140625,-0.3046875,9.58203125,[0. 0. 0. 0. 0. 0. 0. 0. 0.]
1742667635760045100,1742667635,752543396,imu_link,-0.01556396484375,0.09832763671875,-0.001220703125,0.99505615234375,[0. 0. 0. 0. 0. 0. 0. 0. 0.],-0.001953125,-0.00390625,-0.001953125,[0. 0. 0. 0. 0. 0. 0. 0. 0.],-1.9140625,-0.3046875,9.58203125,[0. 0. 0. 0. 0. 0. 0. 0. 0.]
1742667635777574433,1742667635,770756804,imu_link,-0.01556396484375,0.09832763671875,-0.001220703125,0.99505615234375,[0. 0. 0. 0. 0. 0. 0. 0. 0.],-0.00390625,-0.001953125,-0.00390625,[0. 0. 0. 0. 0. 0. 0. 0. 0.],-1.9140625,-0.3046875,9.58203125,[0. 0. 0. 0. 0. 0. 0. 0. 0.]
1742667635802406637,1742667635,790739063,imu_link,-0.015625,0.0982666015625,-0.001220703125,0.99505615234375,[0. 0. 0. 0. 0. 0. 0. 0. 0.],-0.00390625,-0.001953125,-0.00390625,[0. 0. 0. 0. 0. 0. 0. 0. 0.],-1.9140625,-0.3046875,9.58203125,[0. 0. 0. 0. 0. 0. 0. 0. 0.]
1742667635812458637,1742667635,810672137,imu_link,-0.015625,0.0982666015625,-0.001220703125,0.99505615234375,[0. 0. 0. 0. 0. 0. 0. 0. 0.],-0.00390625,-0.001953125,-0.00390625,[0. 0. 0. 0. 0. 0. 0. 0. 0.],-1.9140625,-0.3046875,9.58203125,[0. 0. 0. 0. 0. 0. 0. 0. 0.]
1742667635841478674,1742667635,830782063,imu_link,-0.015625,0.0982666015625,-0.001220703125,0.99505615234375,[0. 0. 0. 0. 0. 0. 0. 0. 0.],0.0,0.001953125,-0.001953125,[0. 0. 0. 0. 0. 0. 0. 0. 0.],-1.9140625,-0.3046875,9.58203125,[0. 0. 0. 0. 0. 0. 0. 0. 0.]
1742667635858869526,1742667635,856108711,imu_link,-0.01556396484375,0.0982666015625,-0.001220703125,0.99505615234375,[0. 0. 0. 0. 0. 0. 0. 0. 0.],0.0,0.001953125,-0.001953125,[0. 0. 0. 0. 0. 0. 0. 0. 0.],-1.9140625,-0.3046875,9.58203125,[0. 0. 0. 0. 0. 0. 0. 0. 0.]
1742667635877541230,1742667635,870761600,imu_link,-0.01556396484375,0.0982666015625,-0.001220703125,0.99505615234375,[0. 0. 0. 0. 0. 0. 0. 0. 0.],0.00390625,0.0,0.0,[0. 0. 0. 0. 0. 0. 0. 0. 0.],-1.9140625,-0.3046875,9.58203125,[0. 0. 0. 0. 0. 0. 0. 0. 0.]
1742667635901342730,1742667635,890680545,imu_link,-0.01556396484375,0.0982666015625,-0.001220703125,0.99505615234375,[0. 0. 0. 0. 0. 0. 0. 0. 0.],0.00390625,0.0,0.0,[0. 0. 0. 0. 0. 0. 0. 0. 0.],-1.9140625,-0.3046875,9.58203125,[0. 0. 0. 0. 0. 0. 0. 0. 0.]
1742667635917284804,1742667635,910689545,imu_link,-0.01556396484375,0.0982666015625,-0.001220703125,0.99505615234375,[0. 0. 0. 0. 0. 0. 0. 0. 0.],0.00390625,0.0,0.0,[0. 0. 0. 0. 0. 0. 0. 0. 0.],-1.9140625,-0.3046875,9.58203125,[0. 0. 0. 0. 0. 0. 0. 0. 0.]
1742667635938292285,1742667635,930893119,imu_link,-0.01556396484375,0.0982666015625,-0.001220703125,0.99505615234375,[0. 0. 0. 0. 0. 0. 0. 0. 0.],-0.001953125,-0.001953125,0.0,[0. 0. 0. 0. 0. 0. 0. 0. 0.],-1.9140625,-0.3046875,9.58203125,[0. 0. 0. 0. 0. 0. 0. 0. 0.]
1742667635964922230,1742667635,950696600,imu_link,-0.01556396484375,0.0982666015625,-0.00115966796875,0.99505615234375,[0. 0. 0. 0. 0. 0. 0. 0. 0.],-0.001953125,-0.001953125,0.0,[0. 0. 0. 0. 0. 0. 0. 0. 0.],-1.9140625,-0.3046875,9.58203125,[0. 0. 0. 0. 0. 0. 0. 0. 0.]
1742667635980926619,1742667635,970658100,imu_link,-0.01556396484375,0.0982666015625,-0.00115966796875,0.99505615234375,[0. 0. 0. 0. 0. 0. 0. 0. 0.],-0.001953125,0.001953125,0.0,[0. 0. 0. 0. 0. 0. 0. 0. 0.],-1.9140625,-0.3046875,9.54296875,[0. 0. 0. 0. 0. 0. 0. 0. 0.]
1742667636002854230,1742667635,990698582,imu_link,-0.01556396484375,0.09832763671875,-0.00115966796875,0.99505615234375,[0. 0. 0. 0. 0. 0. 0. 0. 0.],-0.001953125,0.001953125,0.0,[0. 0. 0. 0. 0. 0. 0. 0. 0.],-1.9140625,-0.3046875,9.54296875,[0. 0. 0. 0. 0. 0. 0. 0. 0.]
1742667636019215248,1742667636,10914822,imu_link,-0.01556396484375,0.09832763671875,-0.00115966796875,0.99505615234375,[0. 0. 0. 0. 0. 0. 0. 0. 0.],-0.001953125,0.001953125,0.0,[0. 0. 0. 0. 0. 0. 0. 0. 0.],-1.9140625,-0.3046875,9.58203125,[0. 0. 0. 0. 0. 0. 0. 0. 0.]
1742667636051374730,1742667636,31110044,imu_link,-0.015625,0.09832763671875,-0.00115966796875,0.99505615234375,[0. 0. 0. 0. 0. 0. 0. 0. 0.],-0.005859375,0.0,-0.001953125,[0. 0. 0. 0. 0. 0. 0. 0. 0.],-1.9140625,-0.3046875,9.58203125,[0. 0. 0. 0. 0. 0. 0. 0. 0.]
1742667636057438452,1742667636,54025526,imu_link,-0.015625,0.09832763671875,-0.00115966796875,0.99505615234375,[0. 0. 0. 0. 0. 0. 0. 0. 0.],-0.005859375,0.0,-0.001953125,[0. 0. 0. 0. 0. 0. 0. 0. 0.],-1.9140625,-0.3046875,9.58203125,[0. 0. 0. 0. 0. 0. 0. 0. 0.]
1742667636081312970,1742667636,70703230,imu_link,-0.015625,0.09832763671875,-0.00115966796875,0.99505615234375,[0. 0. 0. 0. 0. 0. 0. 0. 0.],0.0,0.001953125,0.0,[0. 0. 0. 0. 0. 0. 0. 0. 0.],-1.87890625,-0.3046875,9.578125,[0. 0. 0. 0. 0. 0. 0. 0. 0.]
1742667636107764193,1742667636,90712452,imu_link,-0.01556396484375,0.09832763671875,-0.00115966796875,0.99505615234375,[0. 0. 0. 0. 0. 0. 0. 0. 0.],0.0,0.001953125,0.0,[0. 0. 0. 0. 0. 0. 0. 0. 0.],-1.9140625,-0.3046875,9.58203125,[0. 0. 0. 0. 0. 0. 0. 0. 0.]
1742667636112992989,1742667636,110647267,imu_link,-0.01556396484375,0.09832763671875,-0.00115966796875,0.99505615234375,[0. 0. 0. 0. 0. 0. 0. 0. 0.],0.0,0.001953125,0.0,[0. 0. 0. 0. 0. 0. 0. 0. 0.],-1.9140625,-0.3046875,9.58203125,[0. 0. 0. 0. 0. 0. 0. 0. 0.]
1742667636150155970,1742667636,131150693,imu_link,-0.01556396484375,0.09832763671875,-0.00115966796875,0.99505615234375,[0. 0. 0. 0. 0. 0. 0. 0. 0.],0.001953125,-0.001953125,0.00390625,[0. 0. 0. 0. 0. 0. 0. 0. 0.],-1.9140625,-0.3046875,9.58203125,[0. 0. 0. 0. 0. 0. 0. 0. 0.]
1742667636155543230,1742667636,151841304,imu_link,-0.01556396484375,0.09832763671875,-0.00115966796875,0.99505615234375,[0. 0. 0. 0. 0. 0. 0. 0. 0.],0.001953125,-0.001953125,0.00390625,[0. 0. 0. 0. 0. 0. 0. 0. 0.],-1.9140625,-0.3046875,9.58203125,[0. 0. 0. 0. 0. 0. 0. 0. 0.]
1742667636181515748,1742667636,170851915,imu_link,-0.01556396484375,0.09832763671875,-0.00115966796875,0.99505615234375,[0. 0. 0. 0. 0. 0. 0. 0. 0.],0.0,-0.001953125,0.001953125,[0. 0. 0. 0. 0. 0. 0. 0. 0.],-1.9140625,-0.3046875,9.58203125,[0. 0. 0. 0. 0. 0. 0. 0. 0.]
1742667636203726655,1742667636,190784859,imu_link,-0.01556396484375,0.09832763671875,-0.00115966796875,0.99505615234375,[0. 0. 0. 0. 0. 0. 0. 0. 0.],0.0,-0.001953125,0.001953125,[0. 0. 0. 0. 0. 0. 0. 0. 0.],-1.9140625,-0.3046875,9.58203125,[0. 0. 0. 0. 0. 0. 0. 0. 0.]
1742667636213619581,1742667636,210658637,imu_link,-0.01556396484375,0.09832763671875,-0.00115966796875,0.99505615234375,[0. 0. 0. 0. 0. 0. 0. 0. 0.],0.0,-0.001953125,0.001953125,[0. 0. 0. 0. 0. 0. 0. 0. 0.],-1.9140625,-0.3046875,9.58203125,[0. 0. 0. 0. 0. 0. 0. 0. 0.]
1742667636250911155,1742667636,231102433,imu_link,-0.01556396484375,0.09832763671875,-0.00115966796875,0.99505615234375,[0. 0. 0. 0. 0. 0. 0. 0. 0.],0.0,0.0,0.001953125,[0. 0. 0. 0. 0. 0. 0. 0. 0.],-1.9140625,-0.3046875,9.58203125,[0. 0. 0. 0. 0. 0. 0. 0. 0.]
1742667636256213748,1742667636,253544526,imu_link,-0.01556396484375,0.09832763671875,-0.00115966796875,0.99505615234375,[0. 0. 0. 0. 0. 0. 0. 0. 0.],0.0,0.0,0.001953125,[0. 0. 0. 0. 0. 0. 0. 0. 0.],-1.9140625,-0.3046875,9.58203125,[0. 0. 0. 0. 0. 0. 0. 0. 0.]
1742667636278172359,1742667636,270732711,imu_link,-0.01556396484375,0.09832763671875,-0.00115966796875,0.99505615234375,[0. 0. 0. 0. 0. 0. 0. 0. 0.],-0.001953125,0.001953125,-0.001953125,[0. 0. 0. 0. 0. 0. 0. 0. 0.],-1.9140625,-0.3046875,9.58203125,[0. 0. 0. 0. 0. 0. 0. 0. 0.]
1742667636304930878,1742667636,290704748,imu_link,-0.0155029296875,0.09832763671875,-0.0010986328125,0.99505615234375,[0. 0. 0. 0. 0. 0. 0. 0. 0.],-0.001953125,0.001953125,-0.001953125,[0. 0. 0. 0. 0. 0. 0. 0. 0.],-1.9140625,-0.3046875,9.58203125,[0. 0. 0. 0. 0. 0. 0. 0. 0.]
1742667636313583692,1742667636,310659359,imu_link,-0.0155029296875,0.09832763671875,-0.0010986328125,0.99505615234375,[0. 0. 0. 0. 0. 0. 0. 0. 0.],-0.001953125,0.001953125,-0.001953125,[0. 0. 0. 0. 0. 0. 0. 0. 0.],-1.9140625,-0.3046875,9.58203125,[0. 0. 0. 0. 0. 0. 0. 0. 0.]
1742667636350696007,1742667636,330920841,imu_link,-0.01556396484375,0.09832763671875,-0.0010986328125,0.99505615234375,[0. 0. 0. 0. 0. 0. 0. 0. 0.],-0.001953125,-0.001953125,-0.001953125,[0. 0. 0. 0. 0. 0. 0. 0. 0.],-1.9140625,-0.3046875,9.58203125,[0. 0. 0. 0. 0. 0. 0. 0. 0.]
1742667636359683581,1742667636,357985915,imu_link,-0.01556396484375,0.09832763671875,-0.0010986328125,0.99505615234375,[0. 0. 0. 0. 0. 0. 0. 0. 0.],-0.001953125,-0.001953125,-0.001953125,[0. 0. 0. 0. 0. 0. 0. 0. 0.],-1.9140625,-0.3046875,9.58203125,[0. 0. 0. 0. 0. 0. 0. 0. 0.]
1742667636378419118,1742667636,371143007,imu_link,-0.01556396484375,0.09832763671875,-0.0010986328125,0.99505615234375,[0. 0. 0. 0. 0. 0. 0. 0. 0.],0.00390625,0.001953125,0.0,[0. 0. 0. 0. 0. 0. 0. 0. 0.],-1.9140625,-0.3046875,9.58203125,[0. 0. 0. 0. 0. 0. 0. 0. 0.]
1742667636405087137,1742667636,390740803,imu_link,-0.0155029296875,0.098388671875,-0.0010986328125,0.99505615234375,[0. 0. 0. 0. 0. 0. 0. 0. 0.],0.00390625,0.001953125,0.0,[0. 0. 0. 0. 0. 0. 0. 0. 0.],-1.9140625,-0.3046875,9.58203125,[0. 0. 0. 0. 0. 0. 0. 0. 0.]
1742667636413609155,1742667636,410656748,imu_link,-0.0155029296875,0.098388671875,-0.0010986328125,0.99505615234375,[0. 0. 0. 0. 0. 0. 0. 0. 0.],0.00390625,0.001953125,0.0,[0. 0. 0. 0. 0. 0. 0. 0. 0.],-1.9140625,-0.3046875,9.58203125,[0. 0. 0. 0. 0. 0. 0. 0. 0.]
1742667636438904081,1742667636,430818766,imu_link,-0.0155029296875,0.098388671875,-0.0010986328125,0.99505615234375,[0. 0. 0. 0. 0. 0. 0. 0. 0.],0.0,0.001953125,0.0,[0. 0. 0. 0. 0. 0. 0. 0. 0.],-1.87890625,-0.3046875,9.578125,[0. 0. 0. 0. 0. 0. 0. 0. 0.]
1742667636465359359,1742667636,450731266,imu_link,-0.01556396484375,0.098388671875,-0.0010986328125,0.9949951171875,[0. 0. 0. 0. 0. 0. 0. 0. 0.],0.0,0.001953125,0.0,[0. 0. 0. 0. 0. 0. 0. 0. 0.],-1.9140625,-0.3046875,9.58203125,[0. 0. 0. 0. 0. 0. 0. 0. 0.]
1742667636477892952,1742667636,470661285,imu_link,-0.01556396484375,0.098388671875,-0.0010986328125,0.9949951171875,[0. 0. 0. 0. 0. 0. 0. 0. 0.],0.0,-0.001953125,-0.001953125,[0. 0. 0. 0. 0. 0. 0. 0. 0.],-1.9140625,-0.3046875,9.58203125,[0. 0. 0. 0. 0. 0. 0. 0. 0.]
1742667636505429563,1742667636,491008637,imu_link,-0.01556396484375,0.098388671875,-0.0010986328125,0.9949951171875,[0. 0. 0. 0. 0. 0. 0. 0. 0.],0.0,-0.001953125,-0.001953125,[0. 0. 0. 0. 0. 0. 0. 0. 0.],-1.9140625,-0.3046875,9.58203125,[0. 0. 0. 0. 0. 0. 0. 0. 0.]
1742667636518818359,1742667636,510994563,imu_link,-0.01556396484375,0.098388671875,-0.0010986328125,0.9949951171875,[0. 0. 0. 0. 0. 0. 0. 0. 0.],0.0,-0.001953125,-0.001953125,[0. 0. 0. 0. 0. 0. 0. 0. 0.],-1.9140625,-0.3046875,9.58203125,[0. 0. 0. 0. 0. 0. 0. 0. 0.]
1742667636534875359,1742667636,531271303,imu_link,-0.01556396484375,0.098388671875,-0.0010986328125,0.9949951171875,[0. 0. 0. 0. 0. 0. 0. 0. 0.],0.0,0.0,0.0,[0. 0. 0. 0. 0. 0. 0. 0. 0.],-1.9140625,-0.3046875,9.58203125,[0. 0. 0. 0. 0. 0. 0. 0. 0.]
1742667636565919563,1742667636,550766915,imu_link,-0.0155029296875,0.098388671875,-0.0010986328125,0.9949951171875,[0. 0. 0. 0. 0. 0. 0. 0. 0.],0.0,0.0,0.0,[0. 0. 0. 0. 0. 0. 0. 0. 0.],-1.9140625,-0.3046875,9.58203125,[0. 0. 0. 0. 0. 0. 0. 0. 0.]
1742667636581329118,1742667636,570849396,imu_link,-0.0155029296875,0.098388671875,-0.0010986328125,0.9949951171875,[0. 0. 0. 0. 0. 0. 0. 0. 0.],-0.001953125,0.0,-0.00390625,[0. 0. 0. 0. 0. 0. 0. 0. 0.],-1.9140625,-0.3046875,9.58203125,[0. 0. 0. 0. 0. 0. 0. 0. 0.]
1742667636603427822,1742667636,590679100,imu_link,-0.01556396484375,0.098388671875,-0.0010986328125,0.9949951171875,[0. 0. 0. 0. 0. 0. 0. 0. 0.],-0.001953125,0.0,-0.00390625,[0. 0. 0. 0. 0. 0. 0. 0. 0.],-1.9140625,-0.3046875,9.58203125,[0. 0. 0. 0. 0. 0. 0. 0. 0.]
1742667636614002007,1742667636,610664377,imu_link,-0.01556396484375,0.098388671875,-0.0010986328125,0.9949951171875,[0. 0. 0. 0. 0. 0. 0. 0. 0.],-0.001953125,0.0,-0.00390625,[0. 0. 0. 0. 0. 0. 0. 0. 0.],-1.9140625,-0.3046875,9.58203125,[0. 0. 0. 0. 0. 0. 0. 0. 0.]
1742667636652835100,1742667636,630809563,imu_link,-0.01556396484375,0.098388671875,-0.0010986328125,0.99505615234375,[0. 0. 0. 0. 0. 0. 0. 0. 0.],0.0,0.0,0.001953125,[0. 0. 0. 0. 0. 0. 0. 0. 0.],-1.9140625,-0.3046875,9.58203125,[0. 0. 0. 0. 0. 0. 0. 0. 0.]
1742667636658198951,1742667636,655361359,imu_link,-0.01556396484375,0.098388671875,-0.0010986328125,0.99505615234375,[0. 0. 0. 0. 0. 0. 0. 0. 0.],0.0,0.0,0.001953125,[0. 0. 0. 0. 0. 0. 0. 0. 0.],-1.9140625,-0.3046875,9.58203125,[0. 0. 0. 0. 0. 0. 0. 0. 0.]
1742667636683178359,1742667636,671251396,imu_link,-0.01556396484375,0.098388671875,-0.0010986328125,0.99505615234375,[0. 0. 0. 0. 0. 0. 0. 0. 0.],0.00390625,0.001953125,-0.001953125,[0. 0. 0. 0. 0. 0. 0. 0. 0.],-1.9140625,-0.3046875,9.58203125,[0. 0. 0. 0. 0. 0. 0. 0. 0.]
1742667636708014488,1742667636,690747063,imu_link,-0.0155029296875,0.098388671875,-0.00115966796875,0.99505615234375,[0. 0. 0. 0. 0. 0. 0. 0. 0.],0.00390625,0.001953125,-0.001953125,[0. 0. 0. 0. 0. 0. 0. 0. 0.],-1.9140625,-0.3046875,9.58203125,[0. 0. 0. 0. 0. 0. 0. 0. 0.]
1742667636713970581,1742667636,710647063,imu_link,-0.0155029296875,0.098388671875,-0.00115966796875,0.99505615234375,[0. 0. 0. 0. 0. 0. 0. 0. 0.],0.00390625,0.001953125,-0.001953125,[0. 0. 0. 0. 0. 0. 0. 0. 0.],-1.9140625,-0.3046875,9.58203125,[0. 0. 0. 0. 0. 0. 0. 0. 0.]
1742667636751197044,1742667636,730819396,imu_link,-0.01556396484375,0.098388671875,-0.00115966796875,0.9949951171875,[0. 0. 0. 0. 0. 0. 0. 0. 0.],-0.001953125,0.001953125,-0.001953125,[0. 0. 0. 0. 0. 0. 0. 0. 0.],-1.9140625,-0.3046875,9.58203125,[0. 0. 0. 0. 0. 0. 0. 0. 0.]
1742667636757170192,1742667636,753756525,imu_link,-0.01556396484375,0.098388671875,-0.00115966796875,0.9949951171875,[0. 0. 0. 0. 0. 0. 0. 0. 0.],-0.001953125,0.001953125,-0.001953125,[0. 0. 0. 0. 0. 0. 0. 0. 0.],-1.9140625,-0.3046875,9.58203125,[0. 0. 0. 0. 0. 0. 0. 0. 0.]
1742667636782780803,1742667636,770817414,imu_link,-0.01556396484375,0.098388671875,-0.00115966796875,0.9949951171875,[0. 0. 0. 0. 0. 0. 0. 0. 0.],-0.001953125,0.001953125,0.0,[0. 0. 0. 0. 0. 0. 0. 0. 0.],-1.9140625,-0.3046875,9.58203125,[0. 0. 0. 0. 0. 0. 0. 0. 0.]
1742667636804965414,1742667636,790675896,imu_link,-0.01556396484375,0.098388671875,-0.00115966796875,0.9949951171875,[0. 0. 0. 0. 0. 0. 0. 0. 0.],-0.001953125,0.001953125,0.0,[0. 0. 0. 0. 0. 0. 0. 0. 0.],-1.9140625,-0.3046875,9.58203125,[0. 0. 0. 0. 0. 0. 0. 0. 0.]
1742667636814052285,1742667636,810664600,imu_link,-0.01556396484375,0.098388671875,-0.00115966796875,0.9949951171875,[0. 0. 0. 0. 0. 0. 0. 0. 0.],-0.001953125,0.001953125,0.0,[0. 0. 0. 0. 0. 0. 0. 0. 0.],-1.9140625,-0.3046875,9.58203125,[0. 0. 0. 0. 0. 0. 0. 0. 0.]
1742667636852091118,1742667636,831015470,imu_link,-0.01556396484375,0.098388671875,-0.00115966796875,0.9949951171875,[0. 0. 0. 0. 0. 0. 0. 0. 0.],0.0,0.001953125,0.0,[0. 0. 0. 0. 0. 0. 0. 0. 0.],-1.9140625,-0.3046875,9.58203125,[0. 0. 0. 0. 0. 0. 0. 0. 0.]
1742667636860099785,1742667636,854637174,imu_link,-0.01556396484375,0.098388671875,-0.00115966796875,0.9949951171875,[0. 0. 0. 0. 0. 0. 0. 0. 0.],0.0,0.001953125,0.0,[0. 0. 0. 0. 0. 0. 0. 0. 0.],-1.9140625,-0.3046875,9.58203125,[0. 0. 0. 0. 0. 0. 0. 0. 0.]
1742667636878657507,1742667636,871142192,imu_link,-0.01556396484375,0.098388671875,-0.00115966796875,0.9949951171875,[0. 0. 0. 0. 0. 0. 0. 0. 0.],0.0,-0.001953125,-0.001953125,[0. 0. 0. 0. 0. 0. 0. 0. 0.],-1.9140625,-0.3046875,9.58203125,[0. 0. 0. 0. 0. 0. 0. 0. 0.]
1742667636904296488,1742667636,890710062,imu_link,-0.01556396484375,0.098388671875,-0.00115966796875,0.99505615234375,[0. 0. 0. 0. 0. 0. 0. 0. 0.],0.0,-0.001953125,-0.001953125,[0. 0. 0. 0. 0. 0. 0. 0. 0.],-1.9140625,-0.3046875,9.58203125,[0. 0. 0. 0. 0. 0. 0. 0. 0.]
1742667636914077414,1742667636,910710322,imu_link,-0.01556396484375,0.098388671875,-0.00115966796875,0.99505615234375,[0. 0. 0. 0. 0. 0. 0. 0. 0.],0.0,-0.001953125,-0.001953125,[0. 0. 0. 0. 0. 0. 0. 0. 0.],-1.9140625,-0.3046875,9.58203125,[0. 0. 0. 0. 0. 0. 0. 0. 0.]
1742667636956430803,1742667636,930909192,imu_link,-0.0155029296875,0.098388671875,-0.001220703125,0.99505615234375,[0. 0. 0. 0. 0. 0. 0. 0. 0.],-0.001953125,0.001953125,-0.001953125,[0. 0. 0. 0. 0. 0. 0. 0. 0.],-1.9140625,-0.3046875,9.58203125,[0. 0. 0. 0. 0. 0. 0. 0. 0.]
1742667636959733729,1742667636,958045414,imu_link,-0.0155029296875,0.098388671875,-0.001220703125,0.99505615234375,[0. 0. 0. 0. 0. 0. 0. 0. 0.],-0.001953125,0.001953125,-0.001953125,[0. 0. 0. 0. 0. 0. 0. 0. 0.],-1.87890625,-0.3046875,9.578125,[0. 0. 0. 0. 0. 0. 0. 0. 0.]
1742667636978071766,1742667636,970768951,imu_link,-0.0155029296875,0.098388671875,-0.001220703125,0.99505615234375,[0. 0. 0. 0. 0. 0. 0. 0. 0.],0.001953125,0.0,0.0,[0. 0. 0. 0. 0. 0. 0. 0. 0.],-1.87890625,-0.3046875,9.578125,[0. 0. 0. 0. 0. 0. 0. 0. 0.]
1742667637005305025,1742667636,990673599,imu_link,-0.0155029296875,0.098388671875,-0.00115966796875,0.99505615234375,[0. 0. 0. 0. 0. 0. 0. 0. 0.],0.001953125,0.0,0.0,[0. 0. 0. 0. 0. 0. 0. 0. 0.],-1.9140625,-0.3046875,9.58203125,[0. 0. 0. 0. 0. 0. 0. 0. 0.]
1742667637014302748,1742667637,10827377,imu_link,-0.0155029296875,0.098388671875,-0.00115966796875,0.99505615234375,[0. 0. 0. 0. 0. 0. 0. 0. 0.],0.001953125,0.0,0.0,[0. 0. 0. 0. 0. 0. 0. 0. 0.],-1.9140625,-0.3046875,9.58203125,[0. 0. 0. 0. 0. 0. 0. 0. 0.]
1742667637034270877,1742667637,30876081,imu_link,-0.0155029296875,0.098388671875,-0.00115966796875,0.99505615234375,[0. 0. 0. 0. 0. 0. 0. 0. 0.],0.0,0.001953125,-0.001953125,[0. 0. 0. 0. 0. 0. 0. 0. 0.],-1.9140625,-0.3046875,9.58203125,[0. 0. 0. 0. 0. 0. 0. 0. 0.]
1742667637064842433,1742667637,50723340,imu_link,-0.0155029296875,0.09844970703125,-0.00115966796875,0.9949951171875,[0. 0. 0. 0. 0. 0. 0. 0. 0.],0.0,0.001953125,-0.001953125,[0. 0. 0. 0. 0. 0. 0. 0. 0.],-1.9140625,-0.3046875,9.58203125,[0. 0. 0. 0. 0. 0. 0. 0. 0.]
1742667637077755192,1742667637,71212025,imu_link,-0.0155029296875,0.09844970703125,-0.00115966796875,0.9949951171875,[0. 0. 0. 0. 0. 0. 0. 0. 0.],0.0,0.0,0.0,[0. 0. 0. 0. 0. 0. 0. 0. 0.],-1.9140625,-0.3046875,9.58203125,[0. 0. 0. 0. 0. 0. 0. 0. 0.]
1742667637105114173,1742667637,90738618,imu_link,-0.0155029296875,0.09844970703125,-0.00115966796875,0.9949951171875,[0. 0. 0. 0. 0. 0. 0. 0. 0.],0.0,0.0,0.0,[0. 0. 0. 0. 0. 0. 0. 0. 0.],-1.9140625,-0.3046875,9.58203125,[0. 0. 0. 0. 0. 0. 0. 0. 0.]
1742667637118141877,1742667637,110661636,imu_link,-0.0155029296875,0.09844970703125,-0.00115966796875,0.9949951171875,[0. 0. 0. 0. 0. 0. 0. 0. 0.],0.0,0.0,0.0,[0. 0. 0. 0. 0. 0. 0. 0. 0.],-1.9140625,-0.3046875,9.58203125,[0. 0. 0. 0. 0. 0. 0. 0. 0.]
1742667637134129933,1742667637,130721155,imu_link,-0.0155029296875,0.09844970703125,-0.00115966796875,0.9949951171875,[0. 0. 0. 0. 0. 0. 0. 0. 0.],0.0,-0.001953125,0.0,[0. 0. 0. 0. 0. 0. 0. 0. 0.],-1.9140625,-0.3046875,9.58203125,[0. 0. 0. 0. 0. 0. 0. 0. 0.]
1742667637165100359,1742667637,150830229,imu_link,-0.0155029296875,0.098388671875,-0.00115966796875,0.9949951171875,[0. 0. 0. 0. 0. 0. 0. 0. 0.],0.0,-0.001953125,0.0,[0. 0. 0. 0. 0. 0. 0. 0. 0.],-1.9140625,-0.3046875,9.58203125,[0. 0. 0. 0. 0. 0. 0. 0. 0.]
1742667637182103655,1742667637,170782562,imu_link,-0.0155029296875,0.098388671875,-0.00115966796875,0.9949951171875,[0. 0. 0. 0. 0. 0. 0. 0. 0.],0.001953125,-0.001953125,-0.001953125,[0. 0. 0. 0. 0. 0. 0. 0. 0.],-1.9140625,-0.3046875,9.58203125,[0. 0. 0. 0. 0. 0. 0. 0. 0.]
1742667637203534266,1742667637,190753229,imu_link,-0.0155029296875,0.098388671875,-0.00115966796875,0.99505615234375,[0. 0. 0. 0. 0. 0. 0. 0. 0.],0.001953125,-0.001953125,-0.001953125,[0. 0. 0. 0. 0. 0. 0. 0. 0.],-1.9140625,-0.3046875,9.58203125,[0. 0. 0. 0. 0. 0. 0. 0. 0.]
1742667637214003692,1742667637,210653951,imu_link,-0.0155029296875,0.098388671875,-0.00115966796875,0.99505615234375,[0. 0. 0. 0. 0. 0. 0. 0. 0.],0.001953125,-0.001953125,-0.001953125,[0. 0. 0. 0. 0. 0. 0. 0. 0.],-1.87890625,-0.3046875,9.578125,[0. 0. 0. 0. 0. 0. 0. 0. 0.]
1742667637249962970,1742667637,230818562,imu_link,-0.01556396484375,0.098388671875,-0.00115966796875,0.9949951171875,[0. 0. 0. 0. 0. 0. 0. 0. 0.],0.0,0.0,0.0,[0. 0. 0. 0. 0. 0. 0. 0. 0.],-1.9140625,-0.3046875,9.58203125,[0. 0. 0. 0. 0. 0. 0. 0. 0.]
1742667637255848377,1742667637,252524007,imu_link,-0.01556396484375,0.098388671875,-0.00115966796875,0.9949951171875,[0. 0. 0. 0. 0. 0. 0. 0. 0.],0.0,0.0,0.0,[0. 0. 0. 0. 0. 0. 0. 0. 0.],-1.9140625,-0.3046875,9.58203125,[0. 0. 0. 0. 0. 0. 0. 0. 0.]
1742667637282721433,1742667637,270807507,imu_link,-0.01556396484375,0.098388671875,-0.00115966796875,0.9949951171875,[0. 0. 0. 0. 0. 0. 0. 0. 0.],0.0,0.0,0.0,[0. 0. 0. 0. 0. 0. 0. 0. 0.],-1.9140625,-0.3046875,9.58203125,[0. 0. 0. 0. 0. 0. 0. 0. 0.]
1742667637307041507,1742667637,290676692,imu_link,-0.01556396484375,0.098388671875,-0.00115966796875,0.99505615234375,[0. 0. 0. 0. 0. 0. 0. 0. 0.],0.0,0.0,0.0,[0. 0. 0. 0. 0. 0. 0. 0. 0.],-1.9140625,-0.3046875,9.58203125,[0. 0. 0. 0. 0. 0. 0. 0. 0.]
1742667637313987358,1742667637,310658414,imu_link,-0.01556396484375,0.098388671875,-0.00115966796875,0.99505615234375,[0. 0. 0. 0. 0. 0. 0. 0. 0.],0.0,0.0,0.0,[0. 0. 0. 0. 0. 0. 0. 0. 0.],-1.9140625,-0.3046875,9.58203125,[0. 0. 0. 0. 0. 0. 0. 0. 0.]
1742667637350903451,1742667637,330981747,imu_link,-0.01556396484375,0.098388671875,-0.00115966796875,0.99505615234375,[0. 0. 0. 0. 0. 0. 0. 0. 0.],0.0,0.0,0.0,[0. 0. 0. 0. 0. 0. 0. 0. 0.],-1.9140625,-0.3046875,9.58203125,[0. 0. 0. 0. 0. 0. 0. 0. 0.]
1742667637356195118,1742667637,353472451,imu_link,-0.01556396484375,0.098388671875,-0.00115966796875,0.99505615234375,[0. 0. 0. 0. 0. 0. 0. 0. 0.],0.0,0.0,0.0,[0. 0. 0. 0. 0. 0. 0. 0. 0.],-1.9140625,-0.3046875,9.58203125,[0. 0. 0. 0. 0. 0. 0. 0. 0.]
1742667637383054395,1742667637,371290062,imu_link,-0.01556396484375,0.098388671875,-0.00115966796875,0.99505615234375,[0. 0. 0. 0. 0. 0. 0. 0. 0.],0.0,0.0,0.0,[0. 0. 0. 0. 0. 0. 0. 0. 0.],-1.9140625,-0.3046875,9.58203125,[0. 0. 0. 0. 0. 0. 0. 0. 0.]
1742667637403927173,1742667637,390675488,imu_link,-0.01556396484375,0.09832763671875,-0.00115966796875,0.99505615234375,[0. 0. 0. 0. 0. 0. 0. 0. 0.],0.0,0.0,0.0,[0. 0. 0. 0. 0. 0. 0. 0. 0.],-1.9140625,-0.3046875,9.58203125,[0. 0. 0. 0. 0. 0. 0. 0. 0.]
1742667637414044303,1742667637,410679266,imu_link,-0.01556396484375,0.09832763671875,-0.00115966796875,0.99505615234375,[0. 0. 0. 0. 0. 0. 0. 0. 0.],0.0,0.0,0.0,[0. 0. 0. 0. 0. 0. 0. 0. 0.],-1.9140625,-0.3046875,9.58203125,[0. 0. 0. 0. 0. 0. 0. 0. 0.]
1742667637451480729,1742667637,430786877,imu_link,-0.01556396484375,0.09832763671875,-0.00115966796875,0.99505615234375,[0. 0. 0. 0. 0. 0. 0. 0. 0.],0.0,0.0,0.0,[0. 0. 0. 0. 0. 0. 0. 0. 0.],-1.9140625,-0.3046875,9.58203125,[0. 0. 0. 0. 0. 0. 0. 0. 0.]
1742667637456156821,1742667637,454055247,imu_link,-0.01556396484375,0.09832763671875,-0.00115966796875,0.99505615234375,[0. 0. 0. 0. 0. 0. 0. 0. 0.],0.0,0.0,0.0,[0. 0. 0. 0. 0. 0. 0. 0. 0.],-1.9140625,-0.3046875,9.58203125,[0. 0. 0. 0. 0. 0. 0. 0. 0.]
1742667637482901247,1742667637,470868729,imu_link,-0.01556396484375,0.09832763671875,-0.00115966796875,0.99505615234375,[0. 0. 0. 0. 0. 0. 0. 0. 0.],0.0,0.0,0.0,[0. 0. 0. 0. 0. 0. 0. 0. 0.],-1.9140625,-0.3046875,9.58203125,[0. 0. 0. 0. 0. 0. 0. 0. 0.]
1742667637505000007,1742667637,490673858,imu_link,-0.01556396484375,0.09832763671875,-0.00115966796875,0.99505615234375,[0. 0. 0. 0. 0. 0. 0. 0. 0.],0.0,0.0,0.0,[0. 0. 0. 0. 0. 0. 0. 0. 0.],-1.9140625,-0.3046875,9.58203125,[0. 0. 0. 0. 0. 0. 0. 0. 0.]
1742667637514569488,1742667637,511086803,imu_link,-0.01556396484375,0.09832763671875,-0.00115966796875,0.99505615234375,[0. 0. 0. 0. 0. 0. 0. 0. 0.],0.0,0.0,0.0,[0. 0. 0. 0. 0. 0. 0. 0. 0.],-1.9140625,-0.3046875,9.58203125,[0. 0. 0. 0. 0. 0. 0. 0. 0.]
1742667637550613636,1742667637,530729284,imu_link,-0.01556396484375,0.09832763671875,-0.00115966796875,0.99505615234375,[0. 0. 0. 0. 0. 0. 0. 0. 0.],0.0,0.0,0.0,[0. 0. 0. 0. 0. 0. 0. 0. 0.],-1.9140625,-0.3046875,9.58203125,[0. 0. 0. 0. 0. 0. 0. 0. 0.]
1742667637558188321,1742667637,556478340,imu_link,-0.01556396484375,0.09832763671875,-0.00115966796875,0.99505615234375,[0. 0. 0. 0. 0. 0. 0. 0. 0.],0.0,0.0,0.0,[0. 0. 0. 0. 0. 0. 0. 0. 0.],-1.9140625,-0.3046875,9.58203125,[0. 0. 0. 0. 0. 0. 0. 0. 0.]
1742667637577791155,1742667637,570744766,imu_link,-0.01556396484375,0.09832763671875,-0.00115966796875,0.99505615234375,[0. 0. 0. 0. 0. 0. 0. 0. 0.],0.0,0.0,0.0,[0. 0. 0. 0. 0. 0. 0. 0. 0.],-1.9140625,-0.3046875,9.58203125,[0. 0. 0. 0. 0. 0. 0. 0. 0.]
1742667637605107155,1742667637,590750358,imu_link,-0.01556396484375,0.09832763671875,-0.00115966796875,0.99505615234375,[0. 0. 0. 0. 0. 0. 0. 0. 0.],0.0,0.0,0.0,[0. 0. 0. 0. 0. 0. 0. 0. 0.],-1.9140625,-0.3046875,9.58203125,[0. 0. 0. 0. 0. 0. 0. 0. 0.]
1742667637614295858,1742667637,610808784,imu_link,-0.01556396484375,0.09832763671875,-0.00115966796875,0.99505615234375,[0. 0. 0. 0. 0. 0. 0. 0. 0.],0.0,0.0,0.0,[0. 0. 0. 0. 0. 0. 0. 0. 0.],-1.9140625,-0.3046875,9.58203125,[0. 0. 0. 0. 0. 0. 0. 0. 0.]
1742667637634092506,1742667637,630719173,imu_link,-0.01556396484375,0.09832763671875,-0.00115966796875,0.99505615234375,[0. 0. 0. 0. 0. 0. 0. 0. 0.],0.0,0.0,0.0,[0. 0. 0. 0. 0. 0. 0. 0. 0.],-1.9140625,-0.3046875,9.58203125,[0. 0. 0. 0. 0. 0. 0. 0. 0.]
1742667637664689414,1742667637,650682895,imu_link,-0.01556396484375,0.098388671875,-0.00115966796875,0.99505615234375,[0. 0. 0. 0. 0. 0. 0. 0. 0.],0.0,0.0,0.0,[0. 0. 0. 0. 0. 0. 0. 0. 0.],-1.9140625,-0.3046875,9.58203125,[0. 0. 0. 0. 0. 0. 0. 0. 0.]
1742667637677507969,1742667637,670677173,imu_link,-0.01556396484375,0.098388671875,-0.00115966796875,0.99505615234375,[0. 0. 0. 0. 0. 0. 0. 0. 0.],0.0,0.0,0.0,[0. 0. 0. 0. 0. 0. 0. 0. 0.],-1.9140625,-0.3046875,9.58203125,[0. 0. 0. 0. 0. 0. 0. 0. 0.]
1742667637704936673,1742667637,690961414,imu_link,-0.01556396484375,0.098388671875,-0.00115966796875,0.99505615234375,[0. 0. 0. 0. 0. 0. 0. 0. 0.],0.0,0.0,0.0,[0. 0. 0. 0. 0. 0. 0. 0. 0.],-1.9140625,-0.3046875,9.58203125,[0. 0. 0. 0. 0. 0. 0. 0. 0.]
1742667637722532895,1742667637,710765488,imu_link,-0.01556396484375,0.098388671875,-0.00115966796875,0.99505615234375,[0. 0. 0. 0. 0. 0. 0. 0. 0.],0.0,0.0,0.0,[0. 0. 0. 0. 0. 0. 0. 0. 0.],-1.87890625,-0.3046875,9.578125,[0. 0. 0. 0. 0. 0. 0. 0. 0.]
1742667637734304006,1742667637,730906840,imu_link,-0.01556396484375,0.098388671875,-0.00115966796875,0.99505615234375,[0. 0. 0. 0. 0. 0. 0. 0. 0.],0.0,0.0,0.0,[0. 0. 0. 0. 0. 0. 0. 0. 0.],-1.87890625,-0.3046875,9.578125,[0. 0. 0. 0. 0. 0. 0. 0. 0.]
1742667637764709155,1742667637,750682043,imu_link,-0.01556396484375,0.098388671875,-0.00115966796875,0.99505615234375,[0. 0. 0. 0. 0. 0. 0. 0. 0.],0.0,0.0,0.0,[0. 0. 0. 0. 0. 0. 0. 0. 0.],-1.9140625,-0.3046875,9.58203125,[0. 0. 0. 0. 0. 0. 0. 0. 0.]
1742667637781674006,1742667637,770704155,imu_link,-0.01556396484375,0.098388671875,-0.00115966796875,0.99505615234375,[0. 0. 0. 0. 0. 0. 0. 0. 0.],0.0,0.0,0.0,[0. 0. 0. 0. 0. 0. 0. 0. 0.],-1.9140625,-0.3046875,9.58203125,[0. 0. 0. 0. 0. 0. 0. 0. 0.]
1742667637803264506,1742667637,790712469,imu_link,-0.01556396484375,0.098388671875,-0.00115966796875,0.99505615234375,[0. 0. 0. 0. 0. 0. 0. 0. 0.],0.0,0.0,0.0,[0. 0. 0. 0. 0. 0. 0. 0. 0.],-1.9140625,-0.3046875,9.58203125,[0. 0. 0. 0. 0. 0. 0. 0. 0.]
1742667637814214247,1742667637,810779895,imu_link,-0.01556396484375,0.098388671875,-0.00115966796875,0.99505615234375,[0. 0. 0. 0. 0. 0. 0. 0. 0.],0.0,0.0,0.0,[0. 0. 0. 0. 0. 0. 0. 0. 0.],-1.9140625,-0.3046875,9.58203125,[0. 0. 0. 0. 0. 0. 0. 0. 0.]
1742667637850687599,1742667637,830956303,imu_link,-0.01556396484375,0.098388671875,-0.00115966796875,0.99505615234375,[0. 0. 0. 0. 0. 0. 0. 0. 0.],0.0,0.0,0.0,[0. 0. 0. 0. 0. 0. 0. 0. 0.],-1.9140625,-0.3046875,9.58203125,[0. 0. 0. 0. 0. 0. 0. 0. 0.]
1742667637855336414,1742667637,853248543,imu_link,-0.01556396484375,0.098388671875,-0.00115966796875,0.99505615234375,[0. 0. 0. 0. 0. 0. 0. 0. 0.],0.0,0.0,0.0,[0. 0. 0. 0. 0. 0. 0. 0. 0.],-1.9140625,-0.3046875,9.58203125,[0. 0. 0. 0. 0. 0. 0. 0. 0.]
1742667637881408729,1742667637,870760506,imu_link,-0.01556396484375,0.098388671875,-0.00115966796875,0.99505615234375,[0. 0. 0. 0. 0. 0. 0. 0. 0.],0.0,0.0,0.0,[0. 0. 0. 0. 0. 0. 0. 0. 0.],-1.9140625,-0.3046875,9.58203125,[0. 0. 0. 0. 0. 0. 0. 0. 0.]
1742667637907112895,1742667637,890702099,imu_link,-0.01556396484375,0.098388671875,-0.00115966796875,0.99505615234375,[0. 0. 0. 0. 0. 0. 0. 0. 0.],0.0,0.0,0.0,[0. 0. 0. 0. 0. 0. 0. 0. 0.],-1.9140625,-0.3046875,9.58203125,[0. 0. 0. 0. 0. 0. 0. 0. 0.]
1742667637914360729,1742667637,910911617,imu_link,-0.01556396484375,0.098388671875,-0.00115966796875,0.99505615234375,[0. 0. 0. 0. 0. 0. 0. 0. 0.],0.0,0.0,0.0,[0. 0. 0. 0. 0. 0. 0. 0. 0.],-1.9140625,-0.3046875,9.58203125,[0. 0. 0. 0. 0. 0. 0. 0. 0.]
1742667637952776117,1742667637,930855136,imu_link,-0.01556396484375,0.098388671875,-0.00115966796875,0.99505615234375,[0. 0. 0. 0. 0. 0. 0. 0. 0.],0.0,0.0,0.0,[0. 0. 0. 0. 0. 0. 0. 0. 0.],-1.9140625,-0.3046875,9.58203125,[0. 0. 0. 0. 0. 0. 0. 0. 0.]
1742667637957499969,1742667637,955377580,imu_link,-0.01556396484375,0.098388671875,-0.00115966796875,0.99505615234375,[0. 0. 0. 0. 0. 0. 0. 0. 0.],0.0,0.0,0.0,[0. 0. 0. 0. 0. 0. 0. 0. 0.],-1.9140625,-0.3046875,9.58203125,[0. 0. 0. 0. 0. 0. 0. 0. 0.]
1742667637982137525,1742667637,970750747,imu_link,-0.01556396484375,0.098388671875,-0.00115966796875,0.99505615234375,[0. 0. 0. 0. 0. 0. 0. 0. 0.],0.0,0.0,0.0,[0. 0. 0. 0. 0. 0. 0. 0. 0.],-1.9140625,-0.3046875,9.58203125,[0. 0. 0. 0. 0. 0. 0. 0. 0.]
1742667638004269858,1742667637,990738710,imu_link,-0.01556396484375,0.098388671875,-0.00115966796875,0.99505615234375,[0. 0. 0. 0. 0. 0. 0. 0. 0.],0.0,0.0,0.0,[0. 0. 0. 0. 0. 0. 0. 0. 0.],-1.9140625,-0.3046875,9.58203125,[0. 0. 0. 0. 0. 0. 0. 0. 0.]
1742667638014669358,1742667638,10931617,imu_link,-0.01556396484375,0.098388671875,-0.00115966796875,0.99505615234375,[0. 0. 0. 0. 0. 0. 0. 0. 0.],0.0,0.0,0.0,[0. 0. 0. 0. 0. 0. 0. 0. 0.],-1.9140625,-0.3046875,9.58203125,[0. 0. 0. 0. 0. 0. 0. 0. 0.]
1742667638051159728,1742667638,30825988,imu_link,-0.01556396484375,0.098388671875,-0.00115966796875,0.9949951171875,[0. 0. 0. 0. 0. 0. 0. 0. 0.],0.0,0.0,0.0,[0. 0. 0. 0. 0. 0. 0. 0. 0.],-1.87890625,-0.3046875,9.578125,[0. 0. 0. 0. 0. 0. 0. 0. 0.]
1742667638055636080,1742667638,53735136,imu_link,-0.01556396484375,0.098388671875,-0.00115966796875,0.9949951171875,[0. 0. 0. 0. 0. 0. 0. 0. 0.],0.0,0.0,0.0,[0. 0. 0. 0. 0. 0. 0. 0. 0.],-1.87890625,-0.3046875,9.578125,[0. 0. 0. 0. 0. 0. 0. 0. 0.]
1742667638082318043,1742667638,70760302,imu_link,-0.01556396484375,0.098388671875,-0.00115966796875,0.9949951171875,[0. 0. 0. 0. 0. 0. 0. 0. 0.],0.0,0.0,0.0,[0. 0. 0. 0. 0. 0. 0. 0. 0.],-1.9140625,-0.3046875,9.58203125,[0. 0. 0. 0. 0. 0. 0. 0. 0.]
1742667638104628340,1742667638,90688414,imu_link,-0.01556396484375,0.098388671875,-0.00115966796875,0.99505615234375,[0. 0. 0. 0. 0. 0. 0. 0. 0.],0.0,0.0,0.0,[0. 0. 0. 0. 0. 0. 0. 0. 0.],-1.9140625,-0.3046875,9.58203125,[0. 0. 0. 0. 0. 0. 0. 0. 0.]
1742667638114217728,1742667638,110783969,imu_link,-0.01556396484375,0.098388671875,-0.00115966796875,0.99505615234375,[0. 0. 0. 0. 0. 0. 0. 0. 0.],0.0,0.0,0.0,[0. 0. 0. 0. 0. 0. 0. 0. 0.],-1.9140625,-0.3046875,9.58203125,[0. 0. 0. 0. 0. 0. 0. 0. 0.]
1742667638149629654,1742667638,130794691,imu_link,-0.01556396484375,0.098388671875,-0.00115966796875,0.99505615234375,[0. 0. 0. 0. 0. 0. 0. 0. 0.],0.0,0.0,0.0,[0. 0. 0. 0. 0. 0. 0. 0. 0.],-1.9140625,-0.3046875,9.58203125,[0. 0. 0. 0. 0. 0. 0. 0. 0.]
1742667638159260802,1742667638,156196358,imu_link,-0.01556396484375,0.098388671875,-0.00115966796875,0.99505615234375,[0. 0. 0. 0. 0. 0. 0. 0. 0.],0.0,0.0,0.0,[0. 0. 0. 0. 0. 0. 0. 0. 0.],-1.9140625,-0.3046875,9.58203125,[0. 0. 0. 0. 0. 0. 0. 0. 0.]
1742667638177297636,1742667638,170734654,imu_link,-0.01556396484375,0.098388671875,-0.00115966796875,0.99505615234375,[0. 0. 0. 0. 0. 0. 0. 0. 0.],0.0,0.0,0.0,[0. 0. 0. 0. 0. 0. 0. 0. 0.],-1.9140625,-0.3046875,9.58203125,[0. 0. 0. 0. 0. 0. 0. 0. 0.]
1742667638205040839,1742667638,190748839,imu_link,-0.01556396484375,0.09832763671875,-0.00115966796875,0.99505615234375,[0. 0. 0. 0. 0. 0. 0. 0. 0.],0.0,0.0,0.0,[0. 0. 0. 0. 0. 0. 0. 0. 0.],-1.9140625,-0.3046875,9.58203125,[0. 0. 0. 0. 0. 0. 0. 0. 0.]
1742667638213857414,1742667638,211036636,imu_link,-0.01556396484375,0.09832763671875,-0.00115966796875,0.99505615234375,[0. 0. 0. 0. 0. 0. 0. 0. 0.],0.0,0.0,0.0,[0. 0. 0. 0. 0. 0. 0. 0. 0.],-1.9140625,-0.3046875,9.58203125,[0. 0. 0. 0. 0. 0. 0. 0. 0.]
1742667638234381302,1742667638,230918154,imu_link,-0.01556396484375,0.09832763671875,-0.00115966796875,0.99505615234375,[0. 0. 0. 0. 0. 0. 0. 0. 0.],0.0,0.0,0.0,[0. 0. 0. 0. 0. 0. 0. 0. 0.],-1.9140625,-0.3046875,9.58203125,[0. 0. 0. 0. 0. 0. 0. 0. 0.]
1742667638264172432,1742667638,250708525,imu_link,-0.01556396484375,0.09832763671875,-0.00115966796875,0.99505615234375,[0. 0. 0. 0. 0. 0. 0. 0. 0.],0.0,0.0,0.0,[0. 0. 0. 0. 0. 0. 0. 0. 0.],-1.9140625,-0.3046875,9.58203125,[0. 0. 0. 0. 0. 0. 0. 0. 0.]
1742667638277232339,1742667638,270685488,imu_link,-0.01556396484375,0.09832763671875,-0.00115966796875,0.99505615234375,[0. 0. 0. 0. 0. 0. 0. 0. 0.],0.0,0.0,0.0,[0. 0. 0. 0. 0. 0. 0. 0. 0.],-1.9140625,-0.3046875,9.58203125,[0. 0. 0. 0. 0. 0. 0. 0. 0.]
1742667638303777191,1742667638,290672006,imu_link,-0.01556396484375,0.09832763671875,-0.00115966796875,0.99505615234375,[0. 0. 0. 0. 0. 0. 0. 0. 0.],0.0,0.0,0.0,[0. 0. 0. 0. 0. 0. 0. 0. 0.],-1.87890625,-0.3046875,9.578125,[0. 0. 0. 0. 0. 0. 0. 0. 0.]
1742667638321563580,1742667638,310797543,imu_link,-0.01556396484375,0.09832763671875,-0.00115966796875,0.99505615234375,[0. 0. 0. 0. 0. 0. 0. 0. 0.],0.0,0.0,0.0,[0. 0. 0. 0. 0. 0. 0. 0. 0.],-1.9140625,-0.3046875,9.58203125,[0. 0. 0. 0. 0. 0. 0. 0. 0.]
1742667638334392525,1742667638,330898358,imu_link,-0.01556396484375,0.09832763671875,-0.00115966796875,0.99505615234375,[0. 0. 0. 0. 0. 0. 0. 0. 0.],0.0,0.0,0.0,[0. 0. 0. 0. 0. 0. 0. 0. 0.],-1.9140625,-0.3046875,9.58203125,[0. 0. 0. 0. 0. 0. 0. 0. 0.]
1742667638364046821,1742667638,350692321,imu_link,-0.01556396484375,0.0982666015625,-0.00115966796875,0.99505615234375,[0. 0. 0. 0. 0. 0. 0. 0. 0.],0.0,0.0,0.0,[0. 0. 0. 0. 0. 0. 0. 0. 0.],-1.9140625,-0.3046875,9.58203125,[0. 0. 0. 0. 0. 0. 0. 0. 0.]
1742667638381116636,1742667638,370708339,imu_link,-0.01556396484375,0.0982666015625,-0.00115966796875,0.99505615234375,[0. 0. 0. 0. 0. 0. 0. 0. 0.],0.0,0.0,0.0,[0. 0. 0. 0. 0. 0. 0. 0. 0.],-1.9140625,-0.3046875,9.58203125,[0. 0. 0. 0. 0. 0. 0. 0. 0.]
1742667638403182617,1742667638,390671358,imu_link,-0.01556396484375,0.0982666015625,-0.00115966796875,0.99505615234375,[0. 0. 0. 0. 0. 0. 0. 0. 0.],0.0,0.0,0.0,[0. 0. 0. 0. 0. 0. 0. 0. 0.],-1.9140625,-0.3046875,9.58203125,[0. 0. 0. 0. 0. 0. 0. 0. 0.]
1742667638413584525,1742667638,410797247,imu_link,-0.01556396484375,0.0982666015625,-0.00115966796875,0.99505615234375,[0. 0. 0. 0. 0. 0. 0. 0. 0.],0.0,0.0,0.0,[0. 0. 0. 0. 0. 0. 0. 0. 0.],-1.9140625,-0.3046875,9.58203125,[0. 0. 0. 0. 0. 0. 0. 0. 0.]
1742667638448602284,1742667638,430822487,imu_link,-0.01556396484375,0.0982666015625,-0.00115966796875,0.99505615234375,[0. 0. 0. 0. 0. 0. 0. 0. 0.],0.0,0.0,0.0,[0. 0. 0. 0. 0. 0. 0. 0. 0.],-1.9140625,-0.3046875,9.58203125,[0. 0. 0. 0. 0. 0. 0. 0. 0.]
1742667638453858580,1742667638,451158821,imu_link,-0.01556396484375,0.0982666015625,-0.00115966796875,0.99505615234375,[0. 0. 0. 0. 0. 0. 0. 0. 0.],0.0,0.0,0.0,[0. 0. 0. 0. 0. 0. 0. 0. 0.],-1.9140625,-0.3046875,9.58203125,[0. 0. 0. 0. 0. 0. 0. 0. 0.]
1742667638481703691,1742667638,470758173,imu_link,-0.01556396484375,0.0982666015625,-0.00115966796875,0.99505615234375,[0. 0. 0. 0. 0. 0. 0. 0. 0.],0.0,0.0,0.0,[0. 0. 0. 0. 0. 0. 0. 0. 0.],-1.9140625,-0.3046875,9.58203125,[0. 0. 0. 0. 0. 0. 0. 0. 0.]
1742667638506721969,1742667638,490714117,imu_link,-0.01556396484375,0.0982666015625,-0.00115966796875,0.99505615234375,[0. 0. 0. 0. 0. 0. 0. 0. 0.],0.0,0.0,0.0,[0. 0. 0. 0. 0. 0. 0. 0. 0.],-1.9140625,-0.3046875,9.58203125,[0. 0. 0. 0. 0. 0. 0. 0. 0.]
1742667638513509895,1742667638,510728432,imu_link,-0.01556396484375,0.0982666015625,-0.00115966796875,0.99505615234375,[0. 0. 0. 0. 0. 0. 0. 0. 0.],0.0,0.0,0.0,[0. 0. 0. 0. 0. 0. 0. 0. 0.],-1.9140625,-0.3046875,9.58203125,[0. 0. 0. 0. 0. 0. 0. 0. 0.]
1742667638546737858,1742667638,530892969,imu_link,-0.01556396484375,0.0982666015625,-0.00115966796875,0.99505615234375,[0. 0. 0. 0. 0. 0. 0. 0. 0.],0.0,0.0,0.0,[0. 0. 0. 0. 0. 0. 0. 0. 0.],-1.9140625,-0.3046875,9.58203125,[0. 0. 0. 0. 0. 0. 0. 0. 0.]
1742667638553548376,1742667638,550729598,imu_link,-0.01556396484375,0.0982666015625,-0.00115966796875,0.99505615234375,[0. 0. 0. 0. 0. 0. 0. 0. 0.],0.0,0.0,0.0,[0. 0. 0. 0. 0. 0. 0. 0. 0.],-1.9140625,-0.3046875,9.58203125,[0. 0. 0. 0. 0. 0. 0. 0. 0.]
1742667638581603098,1742667638,570776561,imu_link,-0.01556396484375,0.0982666015625,-0.00115966796875,0.99505615234375,[0. 0. 0. 0. 0. 0. 0. 0. 0.],0.0,0.0,0.0,[0. 0. 0. 0. 0. 0. 0. 0. 0.],-1.9140625,-0.3046875,9.58203125,[0. 0. 0. 0. 0. 0. 0. 0. 0.]
1742667638603431691,1742667638,590730747,imu_link,-0.01556396484375,0.0982666015625,-0.00115966796875,0.99505615234375,[0. 0. 0. 0. 0. 0. 0. 0. 0.],0.0,0.0,0.0,[0. 0. 0. 0. 0. 0. 0. 0. 0.],-1.9140625,-0.3046875,9.58203125,[0. 0. 0. 0. 0. 0. 0. 0. 0.]
1742667638613490247,1742667638,610729598,imu_link,-0.01556396484375,0.0982666015625,-0.00115966796875,0.99505615234375,[0. 0. 0. 0. 0. 0. 0. 0. 0.],0.0,0.0,0.0,[0. 0. 0. 0. 0. 0. 0. 0. 0.],-1.9140625,-0.3046875,9.58203125,[0. 0. 0. 0. 0. 0. 0. 0. 0.]
1742667638651075321,1742667638,630921469,imu_link,-0.01556396484375,0.0982666015625,-0.00115966796875,0.99505615234375,[0. 0. 0. 0. 0. 0. 0. 0. 0.],0.0,0.0,0.0,[0. 0. 0. 0. 0. 0. 0. 0. 0.],-1.9140625,-0.3046875,9.58203125,[0. 0. 0. 0. 0. 0. 0. 0. 0.]
1742667638655783506,1742667638,653904728,imu_link,-0.01556396484375,0.0982666015625,-0.00115966796875,0.99505615234375,[0. 0. 0. 0. 0. 0. 0. 0. 0.],0.0,0.0,0.0,[0. 0. 0. 0. 0. 0. 0. 0. 0.],-1.9140625,-0.3046875,9.58203125,[0. 0. 0. 0. 0. 0. 0. 0. 0.]
1742667638681393876,1742667638,670744932,imu_link,-0.01556396484375,0.0982666015625,-0.00115966796875,0.99505615234375,[0. 0. 0. 0. 0. 0. 0. 0. 0.],0.0,0.0,0.0,[0. 0. 0. 0. 0. 0. 0. 0. 0.],-1.87890625,-0.3046875,9.578125,[0. 0. 0. 0. 0. 0. 0. 0. 0.]
1742667638703964376,1742667638,690712654,imu_link,-0.01556396484375,0.0982666015625,-0.00115966796875,0.99505615234375,[0. 0. 0. 0. 0. 0. 0. 0. 0.],0.0,0.0,0.0,[0. 0. 0. 0. 0. 0. 0. 0. 0.],-1.9140625,-0.3046875,9.58203125,[0. 0. 0. 0. 0. 0. 0. 0. 0.]
1742667638713423302,1742667638,710680858,imu_link,-0.01556396484375,0.0982666015625,-0.00115966796875,0.99505615234375,[0. 0. 0. 0. 0. 0. 0. 0. 0.],0.0,0.0,0.0,[0. 0. 0. 0. 0. 0. 0. 0. 0.],-1.9140625,-0.3046875,9.58203125,[0. 0. 0. 0. 0. 0. 0. 0. 0.]
1742667638747469765,1742667638,730930135,imu_link,-0.01556396484375,0.0982666015625,-0.00115966796875,0.99505615234375,[0. 0. 0. 0. 0. 0. 0. 0. 0.],0.0,0.0,0.0,[0. 0. 0. 0. 0. 0. 0. 0. 0.],-1.9140625,-0.3046875,9.58203125,[0. 0. 0. 0. 0. 0. 0. 0. 0.]
1742667638757559672,1742667638,751056080,imu_link,-0.01556396484375,0.0982666015625,-0.00115966796875,0.99505615234375,[0. 0. 0. 0. 0. 0. 0. 0. 0.],0.0,0.0,0.0,[0. 0. 0. 0. 0. 0. 0. 0. 0.],-1.9140625,-0.3046875,9.58203125,[0. 0. 0. 0. 0. 0. 0. 0. 0.]
1742667638777287709,1742667638,770757395,imu_link,-0.01556396484375,0.0982666015625,-0.00115966796875,0.99505615234375,[0. 0. 0. 0. 0. 0. 0. 0. 0.],0.0,0.0,0.0,[0. 0. 0. 0. 0. 0. 0. 0. 0.],-1.9140625,-0.3046875,9.58203125,[0. 0. 0. 0. 0. 0. 0. 0. 0.]
1742667638803318987,1742667638,790661135,imu_link,-0.01556396484375,0.0982666015625,-0.00115966796875,0.99505615234375,[0. 0. 0. 0. 0. 0. 0. 0. 0.],0.0,0.0,0.0,[0. 0. 0. 0. 0. 0. 0. 0. 0.],-1.9140625,-0.3046875,9.58203125,[0. 0. 0. 0. 0. 0. 0. 0. 0.]
1742667638813448302,1742667638,810700154,imu_link,-0.01556396484375,0.0982666015625,-0.00115966796875,0.99505615234375,[0. 0. 0. 0. 0. 0. 0. 0. 0.],0.0,0.0,0.0,[0. 0. 0. 0. 0. 0. 0. 0. 0.],-1.9140625,-0.3046875,9.58203125,[0. 0. 0. 0. 0. 0. 0. 0. 0.]
1742667638852598432,1742667638,831194284,imu_link,-0.01556396484375,0.0982666015625,-0.00115966796875,0.99505615234375,[0. 0. 0. 0. 0. 0. 0. 0. 0.],0.0,0.0,0.0,[0. 0. 0. 0. 0. 0. 0. 0. 0.],-1.87890625,-0.3046875,9.578125,[0. 0. 0. 0. 0. 0. 0. 0. 0.]
1742667638856492672,1742667638,854188228,imu_link,-0.01556396484375,0.0982666015625,-0.00115966796875,0.99505615234375,[0. 0. 0. 0. 0. 0. 0. 0. 0.],0.0,0.0,0.0,[0. 0. 0. 0. 0. 0. 0. 0. 0.],-1.9140625,-0.3046875,9.58203125,[0. 0. 0. 0. 0. 0. 0. 0. 0.]
1742667638876588117,1742667638,870751246,imu_link,-0.01556396484375,0.0982666015625,-0.00115966796875,0.99505615234375,[0. 0. 0. 0. 0. 0. 0. 0. 0.],0.0,0.0,0.0,[0. 0. 0. 0. 0. 0. 0. 0. 0.],-1.9140625,-0.3046875,9.58203125,[0. 0. 0. 0. 0. 0. 0. 0. 0.]
1742667638903144469,1742667638,890665524,imu_link,-0.01556396484375,0.0982666015625,-0.00115966796875,0.99505615234375,[0. 0. 0. 0. 0. 0. 0. 0. 0.],0.0,0.0,0.0,[0. 0. 0. 0. 0. 0. 0. 0. 0.],-1.9140625,-0.3046875,9.58203125,[0. 0. 0. 0. 0. 0. 0. 0. 0.]
1742667638921058876,1742667638,910717932,imu_link,-0.01556396484375,0.0982666015625,-0.00115966796875,0.99505615234375,[0. 0. 0. 0. 0. 0. 0. 0. 0.],0.0,0.0,0.0,[0. 0. 0. 0. 0. 0. 0. 0. 0.],-1.9140625,-0.3046875,9.58203125,[0. 0. 0. 0. 0. 0. 0. 0. 0.]
1742667638933481339,1742667638,930736228,imu_link,-0.01556396484375,0.0982666015625,-0.00115966796875,0.99505615234375,[0. 0. 0. 0. 0. 0. 0. 0. 0.],0.0,0.0,0.0,[0. 0. 0. 0. 0. 0. 0. 0. 0.],-1.9140625,-0.3046875,9.58203125,[0. 0. 0. 0. 0. 0. 0. 0. 0.]
1742667638968550209,1742667638,951221765,imu_link,-0.01556396484375,0.09820556640625,-0.00115966796875,0.99505615234375,[0. 0. 0. 0. 0. 0. 0. 0. 0.],0.0,0.0,0.0,[0. 0. 0. 0. 0. 0. 0. 0. 0.],-1.9140625,-0.3046875,9.58203125,[0. 0. 0. 0. 0. 0. 0. 0. 0.]
1742667638976625283,1742667638,971140043,imu_link,-0.01556396484375,0.09820556640625,-0.00115966796875,0.99505615234375,[0. 0. 0. 0. 0. 0. 0. 0. 0.],0.0,0.0,0.0,[0. 0. 0. 0. 0. 0. 0. 0. 0.],-1.9140625,-0.3046875,9.58203125,[0. 0. 0. 0. 0. 0. 0. 0. 0.]
1742667639004009913,1742667638,990673617,imu_link,-0.01556396484375,0.09820556640625,-0.00115966796875,0.99505615234375,[0. 0. 0. 0. 0. 0. 0. 0. 0.],0.0,0.0,0.0,[0. 0. 0. 0. 0. 0. 0. 0. 0.],-1.9140625,-0.3046875,9.58203125,[0. 0. 0. 0. 0. 0. 0. 0. 0.]
1742667639021087728,1742667639,10741283,imu_link,-0.01556396484375,0.09820556640625,-0.00115966796875,0.99505615234375,[0. 0. 0. 0. 0. 0. 0. 0. 0.],0.0,0.0,0.0,[0. 0. 0. 0. 0. 0. 0. 0. 0.],-1.9140625,-0.3046875,9.58203125,[0. 0. 0. 0. 0. 0. 0. 0. 0.]
1742667639033262506,1742667639,30861617,imu_link,-0.01556396484375,0.09820556640625,-0.00115966796875,0.99505615234375,[0. 0. 0. 0. 0. 0. 0. 0. 0.],0.0,0.0,0.0,[0. 0. 0. 0. 0. 0. 0. 0. 0.],-1.9140625,-0.3046875,9.58203125,[0. 0. 0. 0. 0. 0. 0. 0. 0.]
1742667639063498172,1742667639,51012543,imu_link,-0.01556396484375,0.09820556640625,-0.00115966796875,0.99505615234375,[0. 0. 0. 0. 0. 0. 0. 0. 0.],0.0,0.0,0.0,[0. 0. 0. 0. 0. 0. 0. 0. 0.],-1.87890625,-0.3046875,9.5390625,[0. 0. 0. 0. 0. 0. 0. 0. 0.]
1742667639074894469,1742667639,73187932,imu_link,-0.01556396484375,0.09820556640625,-0.00115966796875,0.99505615234375,[0. 0. 0. 0. 0. 0. 0. 0. 0.],0.0,0.0,0.0,[0. 0. 0. 0. 0. 0. 0. 0. 0.],-1.9140625,-0.3046875,9.58203125,[0. 0. 0. 0. 0. 0. 0. 0. 0.]
1742667639106909969,1742667639,90732394,imu_link,-0.01556396484375,0.09820556640625,-0.00115966796875,0.99505615234375,[0. 0. 0. 0. 0. 0. 0. 0. 0.],0.0,0.0,0.0,[0. 0. 0. 0. 0. 0. 0. 0. 0.],-1.9140625,-0.3046875,9.58203125,[0. 0. 0. 0. 0. 0. 0. 0. 0.]
1742667639112785450,1742667639,110659913,imu_link,-0.01556396484375,0.09820556640625,-0.00115966796875,0.99505615234375,[0. 0. 0. 0. 0. 0. 0. 0. 0.],0.0,0.0,0.0,[0. 0. 0. 0. 0. 0. 0. 0. 0.],-1.9140625,-0.3046875,9.58203125,[0. 0. 0. 0. 0. 0. 0. 0. 0.]
1742667639148484635,1742667639,130918802,imu_link,-0.01556396484375,0.09820556640625,-0.00115966796875,0.99505615234375,[0. 0. 0. 0. 0. 0. 0. 0. 0.],0.0,0.0,0.0,[0. 0. 0. 0. 0. 0. 0. 0. 0.],-1.9140625,-0.3046875,9.58203125,[0. 0. 0. 0. 0. 0. 0. 0. 0.]
1742667639153582580,1742667639,151532765,imu_link,-0.01556396484375,0.09820556640625,-0.00115966796875,0.99505615234375,[0. 0. 0. 0. 0. 0. 0. 0. 0.],0.0,0.0,0.0,[0. 0. 0. 0. 0. 0. 0. 0. 0.],-1.9140625,-0.3046875,9.58203125,[0. 0. 0. 0. 0. 0. 0. 0. 0.]
1742667639181232598,1742667639,170735394,imu_link,-0.01556396484375,0.09820556640625,-0.00115966796875,0.99505615234375,[0. 0. 0. 0. 0. 0. 0. 0. 0.],0.0,0.0,0.0,[0. 0. 0. 0. 0. 0. 0. 0. 0.],-1.9140625,-0.3046875,9.58203125,[0. 0. 0. 0. 0. 0. 0. 0. 0.]
1742667639204462468,1742667639,190741246,imu_link,-0.01556396484375,0.09820556640625,-0.00115966796875,0.99505615234375,[0. 0. 0. 0. 0. 0. 0. 0. 0.],0.0,0.0,0.0,[0. 0. 0. 0. 0. 0. 0. 0. 0.],-1.9140625,-0.3046875,9.58203125,[0. 0. 0. 0. 0. 0. 0. 0. 0.]
1742667639212813820,1742667639,210706839,imu_link,-0.01556396484375,0.09820556640625,-0.00115966796875,0.99505615234375,[0. 0. 0. 0. 0. 0. 0. 0. 0.],0.0,0.0,0.0,[0. 0. 0. 0. 0. 0. 0. 0. 0.],-1.9140625,-0.3046875,9.58203125,[0. 0. 0. 0. 0. 0. 0. 0. 0.]
1742667639248408505,1742667639,230953154,imu_link,-0.01556396484375,0.09820556640625,-0.00115966796875,0.99505615234375,[0. 0. 0. 0. 0. 0. 0. 0. 0.],0.0,0.0,0.0,[0. 0. 0. 0. 0. 0. 0. 0. 0.],-1.9140625,-0.3046875,9.58203125,[0. 0. 0. 0. 0. 0. 0. 0. 0.]
1742667639253284876,1742667639,251549598,imu_link,-0.01556396484375,0.09820556640625,-0.00115966796875,0.99505615234375,[0. 0. 0. 0. 0. 0. 0. 0. 0.],0.0,0.0,0.0,[0. 0. 0. 0. 0. 0. 0. 0. 0.],-1.9140625,-0.3046875,9.58203125,[0. 0. 0. 0. 0. 0. 0. 0. 0.]
1742667639282036635,1742667639,270744135,imu_link,-0.01556396484375,0.09820556640625,-0.00115966796875,0.99505615234375,[0. 0. 0. 0. 0. 0. 0. 0. 0.],0.0,0.0,0.0,[0. 0. 0. 0. 0. 0. 0. 0. 0.],-1.9140625,-0.3046875,9.58203125,[0. 0. 0. 0. 0. 0. 0. 0. 0.]
1742667639304202061,1742667639,290657894,imu_link,-0.01556396484375,0.09814453125,-0.00115966796875,0.99505615234375,[0. 0. 0. 0. 0. 0. 0. 0. 0.],0.0,0.0,0.0,[0. 0. 0. 0. 0. 0. 0. 0. 0.],-1.9140625,-0.3046875,9.58203125,[0. 0. 0. 0. 0. 0. 0. 0. 0.]
1742667639312812283,1742667639,310667302,imu_link,-0.01556396484375,0.09814453125,-0.00115966796875,0.99505615234375,[0. 0. 0. 0. 0. 0. 0. 0. 0.],0.0,0.0,0.0,[0. 0. 0. 0. 0. 0. 0. 0. 0.],-1.9140625,-0.3046875,9.58203125,[0. 0. 0. 0. 0. 0. 0. 0. 0.]
1742667639347601783,1742667639,330977635,imu_link,-0.01556396484375,0.09820556640625,-0.00115966796875,0.99505615234375,[0. 0. 0. 0. 0. 0. 0. 0. 0.],0.0,0.0,0.0,[0. 0. 0. 0. 0. 0. 0. 0. 0.],-1.9140625,-0.3046875,9.58203125,[0. 0. 0. 0. 0. 0. 0. 0. 0.]
1742667639357584061,1742667639,350762839,imu_link,-0.01556396484375,0.09820556640625,-0.00115966796875,0.99505615234375,[0. 0. 0. 0. 0. 0. 0. 0. 0.],0.0,0.0,0.0,[0. 0. 0. 0. 0. 0. 0. 0. 0.],-1.9140625,-0.3046875,9.58203125,[0. 0. 0. 0. 0. 0. 0. 0. 0.]
1742667639377646894,1742667639,370754635,imu_link,-0.01556396484375,0.09820556640625,-0.00115966796875,0.99505615234375,[0. 0. 0. 0. 0. 0. 0. 0. 0.],0.0,0.0,0.0,[0. 0. 0. 0. 0. 0. 0. 0. 0.],-1.9140625,-0.3046875,9.58203125,[0. 0. 0. 0. 0. 0. 0. 0. 0.]
1742667639403374635,1742667639,390680283,imu_link,-0.01556396484375,0.09820556640625,-0.00115966796875,0.99505615234375,[0. 0. 0. 0. 0. 0. 0. 0. 0.],0.0,0.0,0.0,[0. 0. 0. 0. 0. 0. 0. 0. 0.],-1.9140625,-0.3046875,9.58203125,[0. 0. 0. 0. 0. 0. 0. 0. 0.]
1742667639412848783,1742667639,410685820,imu_link,-0.01556396484375,0.09820556640625,-0.00115966796875,0.99505615234375,[0. 0. 0. 0. 0. 0. 0. 0. 0.],0.0,0.0,0.0,[0. 0. 0. 0. 0. 0. 0. 0. 0.],-1.9140625,-0.3046875,9.58203125,[0. 0. 0. 0. 0. 0. 0. 0. 0.]
1742667639453006487,1742667639,430804505,imu_link,-0.01556396484375,0.09820556640625,-0.00115966796875,0.99505615234375,[0. 0. 0. 0. 0. 0. 0. 0. 0.],0.0,0.0,0.0,[0. 0. 0. 0. 0. 0. 0. 0. 0.],-1.9140625,-0.3046875,9.58203125,[0. 0. 0. 0. 0. 0. 0. 0. 0.]
1742667639457983283,1742667639,454606857,imu_link,-0.01556396484375,0.09820556640625,-0.00115966796875,0.99505615234375,[0. 0. 0. 0. 0. 0. 0. 0. 0.],0.0,0.0,0.0,[0. 0. 0. 0. 0. 0. 0. 0. 0.],-1.9140625,-0.3046875,9.58203125,[0. 0. 0. 0. 0. 0. 0. 0. 0.]
1742667639477026876,1742667639,470722228,imu_link,-0.01556396484375,0.09820556640625,-0.00115966796875,0.99505615234375,[0. 0. 0. 0. 0. 0. 0. 0. 0.],0.0,0.0,0.0,[0. 0. 0. 0. 0. 0. 0. 0. 0.],-1.9140625,-0.3046875,9.58203125,[0. 0. 0. 0. 0. 0. 0. 0. 0.]
1742667639502834209,1742667639,490775228,imu_link,-0.01556396484375,0.09820556640625,-0.00115966796875,0.99505615234375,[0. 0. 0. 0. 0. 0. 0. 0. 0.],0.0,0.0,0.0,[0. 0. 0. 0. 0. 0. 0. 0. 0.],-1.9140625,-0.3046875,9.58203125,[0. 0. 0. 0. 0. 0. 0. 0. 0.]
1742667639521742172,1742667639,510721283,imu_link,-0.01556396484375,0.09820556640625,-0.00115966796875,0.99505615234375,[0. 0. 0. 0. 0. 0. 0. 0. 0.],0.0,0.0,0.0,[0. 0. 0. 0. 0. 0. 0. 0. 0.],-1.9140625,-0.3046875,9.58203125,[0. 0. 0. 0. 0. 0. 0. 0. 0.]
1742667639532621635,1742667639,530670302,imu_link,-0.01556396484375,0.09820556640625,-0.00115966796875,0.99505615234375,[0. 0. 0. 0. 0. 0. 0. 0. 0.],0.0,0.0,0.0,[0. 0. 0. 0. 0. 0. 0. 0. 0.],-1.9140625,-0.3046875,9.58203125,[0. 0. 0. 0. 0. 0. 0. 0. 0.]
1742667639568090542,1742667639,550764339,imu_link,-0.01556396484375,0.0982666015625,-0.00115966796875,0.99505615234375,[0. 0. 0. 0. 0. 0. 0. 0. 0.],0.0,0.0,0.0,[0. 0. 0. 0. 0. 0. 0. 0. 0.],-1.9140625,-0.3046875,9.58203125,[0. 0. 0. 0. 0. 0. 0. 0. 0.]
1742667639572419839,1742667639,570619505,imu_link,-0.01556396484375,0.0982666015625,-0.00115966796875,0.99505615234375,[0. 0. 0. 0. 0. 0. 0. 0. 0.],0.0,0.0,0.0,[0. 0. 0. 0. 0. 0. 0. 0. 0.],-1.9140625,-0.3046875,9.58203125,[0. 0. 0. 0. 0. 0. 0. 0. 0.]
1742667639602675598,1742667639,590783783,imu_link,-0.01556396484375,0.0982666015625,-0.00115966796875,0.99505615234375,[0. 0. 0. 0. 0. 0. 0. 0. 0.],0.0,0.0,0.0,[0. 0. 0. 0. 0. 0. 0. 0. 0.],-1.9140625,-0.3046875,9.58203125,[0. 0. 0. 0. 0. 0. 0. 0. 0.]
1742667639621605172,1742667639,610691802,imu_link,-0.01556396484375,0.0982666015625,-0.00115966796875,0.99505615234375,[0. 0. 0. 0. 0. 0. 0. 0. 0.],0.0,0.0,0.0,[0. 0. 0. 0. 0. 0. 0. 0. 0.],-1.9140625,-0.3046875,9.58203125,[0. 0. 0. 0. 0. 0. 0. 0. 0.]
1742667639632439598,1742667639,630685265,imu_link,-0.01556396484375,0.0982666015625,-0.00115966796875,0.99505615234375,[0. 0. 0. 0. 0. 0. 0. 0. 0.],0.0,0.0,0.0,[0. 0. 0. 0. 0. 0. 0. 0. 0.],-1.9140625,-0.3046875,9.58203125,[0. 0. 0. 0. 0. 0. 0. 0. 0.]
1742667639672456246,1742667639,650917690,imu_link,-0.01556396484375,0.0982666015625,-0.00115966796875,0.99505615234375,[0. 0. 0. 0. 0. 0. 0. 0. 0.],0.0,0.0,0.0,[0. 0. 0. 0. 0. 0. 0. 0. 0.],-1.9140625,-0.3046875,9.58203125,[0. 0. 0. 0. 0. 0. 0. 0. 0.]
1742667639677518413,1742667639,674043764,imu_link,-0.01556396484375,0.0982666015625,-0.00115966796875,0.99505615234375,[0. 0. 0. 0. 0. 0. 0. 0. 0.],0.0,0.0,0.0,[0. 0. 0. 0. 0. 0. 0. 0. 0.],-1.9140625,-0.3046875,9.58203125,[0. 0. 0. 0. 0. 0. 0. 0. 0.]
1742667639706513505,1742667639,691067653,imu_link,-0.01556396484375,0.0982666015625,-0.00115966796875,0.99505615234375,[0. 0. 0. 0. 0. 0. 0. 0. 0.],0.0,0.0,0.0,[0. 0. 0. 0. 0. 0. 0. 0. 0.],-1.9140625,-0.3046875,9.58203125,[0. 0. 0. 0. 0. 0. 0. 0. 0.]
1742667639712613709,1742667639,710653450,imu_link,-0.01556396484375,0.0982666015625,-0.00115966796875,0.99505615234375,[0. 0. 0. 0. 0. 0. 0. 0. 0.],0.0,0.0,0.0,[0. 0. 0. 0. 0. 0. 0. 0. 0.],-1.9140625,-0.3046875,9.58203125,[0. 0. 0. 0. 0. 0. 0. 0. 0.]
1742667639746698894,1742667639,730725783,imu_link,-0.01556396484375,0.0982666015625,-0.00115966796875,0.99505615234375,[0. 0. 0. 0. 0. 0. 0. 0. 0.],0.0,0.0,0.0,[0. 0. 0. 0. 0. 0. 0. 0. 0.],-1.9140625,-0.3046875,9.58203125,[0. 0. 0. 0. 0. 0. 0. 0. 0.]
1742667639752362376,1742667639,750652079,imu_link,-0.01556396484375,0.0982666015625,-0.00115966796875,0.99505615234375,[0. 0. 0. 0. 0. 0. 0. 0. 0.],0.0,0.0,0.0,[0. 0. 0. 0. 0. 0. 0. 0. 0.],-1.9140625,-0.3046875,9.58203125,[0. 0. 0. 0. 0. 0. 0. 0. 0.]
1742667639781203857,1742667639,770741894,imu_link,-0.01556396484375,0.0982666015625,-0.00115966796875,0.99505615234375,[0. 0. 0. 0. 0. 0. 0. 0. 0.],0.0,0.0,0.0,[0. 0. 0. 0. 0. 0. 0. 0. 0.],-1.9140625,-0.3046875,9.58203125,[0. 0. 0. 0. 0. 0. 0. 0. 0.]
1742667639803779413,1742667639,791200061,imu_link,-0.01556396484375,0.0982666015625,-0.00115966796875,0.99505615234375,[0. 0. 0. 0. 0. 0. 0. 0. 0.],0.0,0.0,0.0,[0. 0. 0. 0. 0. 0. 0. 0. 0.],-1.9140625,-0.3046875,9.58203125,[0. 0. 0. 0. 0. 0. 0. 0. 0.]
1742667639812451320,1742667639,810710394,imu_link,-0.01556396484375,0.0982666015625,-0.00115966796875,0.99505615234375,[0. 0. 0. 0. 0. 0. 0. 0. 0.],0.0,0.0,0.0,[0. 0. 0. 0. 0. 0. 0. 0. 0.],-1.9140625,-0.3046875,9.58203125,[0. 0. 0. 0. 0. 0. 0. 0. 0.]
1742667639847102561,1742667639,830931394,imu_link,-0.01556396484375,0.09832763671875,-0.00115966796875,0.99505615234375,[0. 0. 0. 0. 0. 0. 0. 0. 0.],0.0,0.0,0.0,[0. 0. 0. 0. 0. 0. 0. 0. 0.],-1.9140625,-0.3046875,9.58203125,[0. 0. 0. 0. 0. 0. 0. 0. 0.]
1742667639852471672,1742667639,850703913,imu_link,-0.01556396484375,0.09832763671875,-0.00115966796875,0.99505615234375,[0. 0. 0. 0. 0. 0. 0. 0. 0.],0.0,0.0,0.0,[0. 0. 0. 0. 0. 0. 0. 0. 0.],-1.9140625,-0.3046875,9.58203125,[0. 0. 0. 0. 0. 0. 0. 0. 0.]
1742667639881715079,1742667639,870820598,imu_link,-0.01556396484375,0.09832763671875,-0.00115966796875,0.99505615234375,[0. 0. 0. 0. 0. 0. 0. 0. 0.],0.0,0.0,0.0,[0. 0. 0. 0. 0. 0. 0. 0. 0.],-1.9140625,-0.3046875,9.58203125,[0. 0. 0. 0. 0. 0. 0. 0. 0.]
1742667639903627079,1742667639,890829301,imu_link,-0.01556396484375,0.09832763671875,-0.00115966796875,0.99505615234375,[0. 0. 0. 0. 0. 0. 0. 0. 0.],0.0,0.0,0.0,[0. 0. 0. 0. 0. 0. 0. 0. 0.],-1.87890625,-0.34375,9.58203125,[0. 0. 0. 0. 0. 0. 0. 0. 0.]
1742667639912542838,1742667639,910725098,imu_link,-0.01556396484375,0.09832763671875,-0.00115966796875,0.99505615234375,[0. 0. 0. 0. 0. 0. 0. 0. 0.],0.0,0.0,0.0,[0. 0. 0. 0. 0. 0. 0. 0. 0.],-1.87890625,-0.34375,9.58203125,[0. 0. 0. 0. 0. 0. 0. 0. 0.]
1742667639932547487,1742667639,930728394,imu_link,-0.01556396484375,0.09832763671875,-0.00115966796875,0.99505615234375,[0. 0. 0. 0. 0. 0. 0. 0. 0.],0.0,0.0,0.0,[0. 0. 0. 0. 0. 0. 0. 0. 0.],-1.87890625,-0.3046875,9.5390625,[0. 0. 0. 0. 0. 0. 0. 0. 0.]
1742667639956813987,1742667639,950735579,imu_link,-0.01556396484375,0.09832763671875,-0.00115966796875,0.99505615234375,[0. 0. 0. 0. 0. 0. 0. 0. 0.],0.0,0.0,0.0,[0. 0. 0. 0. 0. 0. 0. 0. 0.],-1.87890625,-0.3046875,9.5390625,[0. 0. 0. 0. 0. 0. 0. 0. 0.]
1742667639978011153,1742667639,970754153,imu_link,-0.01556396484375,0.09832763671875,-0.00115966796875,0.99505615234375,[0. 0. 0. 0. 0. 0. 0. 0. 0.],0.01171875,-0.001953125,0.03515625,[0. 0. 0. 0. 0. 0. 0. 0. 0.],-1.609375,-0.49609375,9.578125,[0. 0. 0. 0. 0. 0. 0. 0. 0.]
1742667640003531079,1742667639,990855116,imu_link,-0.0152587890625,0.09832763671875,-0.00042724609375,0.99505615234375,[0. 0. 0. 0. 0. 0. 0. 0. 0.],0.01171875,-0.001953125,0.03515625,[0. 0. 0. 0. 0. 0. 0. 0. 0.],-1.33984375,-0.65234375,9.58203125,[0. 0. 0. 0. 0. 0. 0. 0. 0.]
1742667640012983561,1742667640,10880357,imu_link,-0.0152587890625,0.09832763671875,-0.00042724609375,0.99505615234375,[0. 0. 0. 0. 0. 0. 0. 0. 0.],0.01171875,-0.001953125,0.03515625,[0. 0. 0. 0. 0. 0. 0. 0. 0.],-1.33984375,-0.65234375,9.58203125,[0. 0. 0. 0. 0. 0. 0. 0. 0.]
1742667640032666709,1742667640,30740153,imu_link,-0.0152587890625,0.09832763671875,-0.00042724609375,0.99505615234375,[0. 0. 0. 0. 0. 0. 0. 0. 0.],0.01953125,-0.001953125,0.126953125,[0. 0. 0. 0. 0. 0. 0. 0. 0.],-0.95703125,-0.8828125,9.6484375,[0. 0. 0. 0. 0. 0. 0. 0. 0.]
1742667640057555986,1742667640,50769949,imu_link,-0.01458740234375,0.09820556640625,0.00238037109375,0.99505615234375,[0. 0. 0. 0. 0. 0. 0. 0. 0.],0.01953125,-0.001953125,0.126953125,[0. 0. 0. 0. 0. 0. 0. 0. 0.],-0.53515625,-1.03515625,9.609375,[0. 0. 0. 0. 0. 0. 0. 0. 0.]
1742667640076817042,1742667640,70756561,imu_link,-0.01458740234375,0.09820556640625,0.00238037109375,0.99505615234375,[0. 0. 0. 0. 0. 0. 0. 0. 0.],-0.009765625,0.00390625,0.17578125,[0. 0. 0. 0. 0. 0. 0. 0. 0.],-0.53515625,-1.03515625,9.609375,[0. 0. 0. 0. 0. 0. 0. 0. 0.]
1742667640097240727,1742667640,93730301,imu_link,-0.01434326171875,0.0980224609375,0.00665283203125,0.99505615234375,[0. 0. 0. 0. 0. 0. 0. 0. 0.],-0.009765625,0.00390625,0.17578125,[0. 0. 0. 0. 0. 0. 0. 0. 0.],-0.57421875,-0.8828125,9.84375,[0. 0. 0. 0. 0. 0. 0. 0. 0.]
1742667640121431412,1742667640,110717320,imu_link,-0.01434326171875,0.0980224609375,0.00665283203125,0.99505615234375,[0. 0. 0. 0. 0. 0. 0. 0. 0.],0.0,0.0078125,0.177734375,[0. 0. 0. 0. 0. 0. 0. 0. 0.],-0.49609375,-0.99609375,9.58203125,[0. 0. 0. 0. 0. 0. 0. 0. 0.]
1742667640132723061,1742667640,130777468,imu_link,-0.01434326171875,0.0980224609375,0.00665283203125,0.99505615234375,[0. 0. 0. 0. 0. 0. 0. 0. 0.],0.0,0.0078125,0.177734375,[0. 0. 0. 0. 0. 0. 0. 0. 0.],-0.49609375,-0.99609375,9.58203125,[0. 0. 0. 0. 0. 0. 0. 0. 0.]
1742667640152868264,1742667640,150756116,imu_link,-0.01446533203125,0.097900390625,0.01104736328125,0.99505615234375,[0. 0. 0. 0. 0. 0. 0. 0. 0.],0.0,0.0078125,0.177734375,[0. 0. 0. 0. 0. 0. 0. 0. 0.],-0.69140625,-0.765625,9.6484375,[0. 0. 0. 0. 0. 0. 0. 0. 0.]
1742667640181392135,1742667640,170797635,imu_link,-0.01446533203125,0.097900390625,0.01104736328125,0.99505615234375,[0. 0. 0. 0. 0. 0. 0. 0. 0.],0.015625,0.009765625,0.30078125,[0. 0. 0. 0. 0. 0. 0. 0. 0.],-1.41796875,-0.34375,9.54296875,[0. 0. 0. 0. 0. 0. 0. 0. 0.]
1742667640209891431,1742667640,190996412,imu_link,-0.01422119140625,0.0977783203125,0.01806640625,0.99493408203125,[0. 0. 0. 0. 0. 0. 0. 0. 0.],0.015625,0.009765625,0.30078125,[0. 0. 0. 0. 0. 0. 0. 0. 0.],-1.41796875,-0.34375,9.54296875,[0. 0. 0. 0. 0. 0. 0. 0. 0.]
1742667640219158172,1742667640,211627190,imu_link,-0.01422119140625,0.0977783203125,0.01806640625,0.99493408203125,[0. 0. 0. 0. 0. 0. 0. 0. 0.],-0.013671875,0.0078125,0.234375,[0. 0. 0. 0. 0. 0. 0. 0. 0.],-1.9140625,0.078125,9.65234375,[0. 0. 0. 0. 0. 0. 0. 0. 0.]
1742667640232678801,1742667640,230808283,imu_link,-0.01422119140625,0.0977783203125,0.01806640625,0.99493408203125,[0. 0. 0. 0. 0. 0. 0. 0. 0.],-0.013671875,0.0078125,0.234375,[0. 0. 0. 0. 0. 0. 0. 0. 0.],-1.9140625,0.078125,9.65234375,[0. 0. 0. 0. 0. 0. 0. 0. 0.]
1742667640252531209,1742667640,250749709,imu_link,-0.014404296875,0.0975341796875,0.02410888671875,0.99481201171875,[0. 0. 0. 0. 0. 0. 0. 0. 0.],-0.013671875,0.0078125,0.234375,[0. 0. 0. 0. 0. 0. 0. 0. 0.],-2.22265625,0.19140625,9.578125,[0. 0. 0. 0. 0. 0. 0. 0. 0.]
1742667640281359783,1742667640,270803172,imu_link,-0.014404296875,0.0975341796875,0.02410888671875,0.99481201171875,[0. 0. 0. 0. 0. 0. 0. 0. 0.],-0.029296875,0.005859375,0.171875,[0. 0. 0. 0. 0. 0. 0. 0. 0.],-2.14453125,0.11328125,9.5,[0. 0. 0. 0. 0. 0. 0. 0. 0.]
1742667640308026894,1742667640,291289505,imu_link,-0.01483154296875,0.09722900390625,0.028564453125,0.9947509765625,[0. 0. 0. 0. 0. 0. 0. 0. 0.],-0.029296875,0.005859375,0.171875,[0. 0. 0. 0. 0. 0. 0. 0. 0.],-2.22265625,-0.078125,9.609375,[0. 0. 0. 0. 0. 0. 0. 0. 0.]
1742667640312438542,1742667640,310692505,imu_link,-0.01483154296875,0.09722900390625,0.028564453125,0.9947509765625,[0. 0. 0. 0. 0. 0. 0. 0. 0.],-0.029296875,0.005859375,0.171875,[0. 0. 0. 0. 0. 0. 0. 0. 0.],-2.22265625,-0.078125,9.609375,[0. 0. 0. 0. 0. 0. 0. 0. 0.]
1742667640346901134,1742667640,330806468,imu_link,-0.01483154296875,0.09698486328125,0.03302001953125,0.99462890625,[0. 0. 0. 0. 0. 0. 0. 0. 0.],-0.005859375,0.0078125,0.1875,[0. 0. 0. 0. 0. 0. 0. 0. 0.],-2.14453125,-0.11328125,9.5,[0. 0. 0. 0. 0. 0. 0. 0. 0.]
1742667640352435986,1742667640,350695227,imu_link,-0.01483154296875,0.09698486328125,0.03302001953125,0.99462890625,[0. 0. 0. 0. 0. 0. 0. 0. 0.],-0.005859375,0.0078125,0.1875,[0. 0. 0. 0. 0. 0. 0. 0. 0.],-2.14453125,-0.11328125,9.5,[0. 0. 0. 0. 0. 0. 0. 0. 0.]
1742667640380706634,1742667640,370805338,imu_link,-0.01483154296875,0.09698486328125,0.03302001953125,0.99462890625,[0. 0. 0. 0. 0. 0. 0. 0. 0.],-0.005859375,0.00390625,0.181640625,[0. 0. 0. 0. 0. 0. 0. 0. 0.],-2.26171875,-0.0390625,9.58203125,[0. 0. 0. 0. 0. 0. 0. 0. 0.]
1742667640405101783,1742667640,391221375,imu_link,-0.01483154296875,0.0968017578125,0.03753662109375,0.9945068359375,[0. 0. 0. 0. 0. 0. 0. 0. 0.],-0.005859375,0.00390625,0.181640625,[0. 0. 0. 0. 0. 0. 0. 0. 0.],-2.296875,-0.078125,9.50390625,[0. 0. 0. 0. 0. 0. 0. 0. 0.]
1742667640417295783,1742667640,410711283,imu_link,-0.01483154296875,0.0968017578125,0.03753662109375,0.9945068359375,[0. 0. 0. 0. 0. 0. 0. 0. 0.],-0.005859375,0.00390625,0.181640625,[0. 0. 0. 0. 0. 0. 0. 0. 0.],-2.296875,-0.078125,9.50390625,[0. 0. 0. 0. 0. 0. 0. 0. 0.]
1742667640446363949,1742667640,430730931,imu_link,-0.0150146484375,0.096435546875,0.04058837890625,0.994384765625,[0. 0. 0. 0. 0. 0. 0. 0. 0.],-0.00390625,0.00390625,0.11328125,[0. 0. 0. 0. 0. 0. 0. 0. 0.],-2.26171875,-0.15234375,9.609375,[0. 0. 0. 0. 0. 0. 0. 0. 0.]
1742667640452453894,1742667640,450695671,imu_link,-0.0150146484375,0.096435546875,0.04058837890625,0.994384765625,[0. 0. 0. 0. 0. 0. 0. 0. 0.],-0.00390625,0.00390625,0.11328125,[0. 0. 0. 0. 0. 0. 0. 0. 0.],-2.26171875,-0.15234375,9.609375,[0. 0. 0. 0. 0. 0. 0. 0. 0.]
1742667640493859616,1742667640,470764838,imu_link,-0.01507568359375,0.09619140625,0.04437255859375,0.9942626953125,[0. 0. 0. 0. 0. 0. 0. 0. 0.],-0.00390625,0.00390625,0.1640625,[0. 0. 0. 0. 0. 0. 0. 0. 0.],-2.10546875,-0.3046875,9.5,[0. 0. 0. 0. 0. 0. 0. 0. 0.]
1742667640499598005,1742667640,496531505,imu_link,-0.01507568359375,0.09619140625,0.04437255859375,0.9942626953125,[0. 0. 0. 0. 0. 0. 0. 0. 0.],-0.00390625,0.00390625,0.1640625,[0. 0. 0. 0. 0. 0. 0. 0. 0.],-1.9921875,-0.34375,9.61328125,[0. 0. 0. 0. 0. 0. 0. 0. 0.]
1742667640518036227,1742667640,510963857,imu_link,-0.01507568359375,0.09619140625,0.04437255859375,0.9942626953125,[0. 0. 0. 0. 0. 0. 0. 0. 0.],0.0,0.00390625,0.173828125,[0. 0. 0. 0. 0. 0. 0. 0. 0.],-1.9921875,-0.34375,9.61328125,[0. 0. 0. 0. 0. 0. 0. 0. 0.]
1742667640544762431,1742667640,531099190,imu_link,-0.0150146484375,0.09600830078125,0.048828125,0.99407958984375,[0. 0. 0. 0. 0. 0. 0. 0. 0.],0.0,0.00390625,0.173828125,[0. 0. 0. 0. 0. 0. 0. 0. 0.],-1.9140625,-0.4609375,9.5,[0. 0. 0. 0. 0. 0. 0. 0. 0.]
1742667640552578931,1742667640,550729320,imu_link,-0.0150146484375,0.09600830078125,0.048828125,0.99407958984375,[0. 0. 0. 0. 0. 0. 0. 0. 0.],0.0,0.00390625,0.173828125,[0. 0. 0. 0. 0. 0. 0. 0. 0.],-1.9140625,-0.4609375,9.5,[0. 0. 0. 0. 0. 0. 0. 0. 0.]
1742667640577382042,1742667640,570731282,imu_link,-0.0150146484375,0.09600830078125,0.048828125,0.99407958984375,[0. 0. 0. 0. 0. 0. 0. 0. 0.],-0.013671875,0.00390625,0.193359375,[0. 0. 0. 0. 0. 0. 0. 0. 0.],-1.68359375,-0.61328125,9.65234375,[0. 0. 0. 0. 0. 0. 0. 0. 0.]
1742667640604482505,1742667640,590812301,imu_link,-0.01507568359375,0.09576416015625,0.05352783203125,0.99383544921875,[0. 0. 0. 0. 0. 0. 0. 0. 0.],-0.013671875,0.00390625,0.193359375,[0. 0. 0. 0. 0. 0. 0. 0. 0.],-1.4921875,-0.8046875,9.58203125,[0. 0. 0. 0. 0. 0. 0. 0. 0.]
1742667640621128857,1742667640,610711523,imu_link,-0.01507568359375,0.09576416015625,0.05352783203125,0.99383544921875,[0. 0. 0. 0. 0. 0. 0. 0. 0.],-0.0234375,0.005859375,0.2578125,[0. 0. 0. 0. 0. 0. 0. 0. 0.],-1.4921875,-0.8046875,9.58203125,[0. 0. 0. 0. 0. 0. 0. 0. 0.]
1742667640643302319,1742667640,630798023,imu_link,-0.0150146484375,0.09564208984375,0.059814453125,0.9935302734375,[0. 0. 0. 0. 0. 0. 0. 0. 0.],-0.0234375,0.005859375,0.2578125,[0. 0. 0. 0. 0. 0. 0. 0. 0.],-1.72265625,-0.57421875,9.61328125,[0. 0. 0. 0. 0. 0. 0. 0. 0.]
1742667640657628579,1742667640,650755282,imu_link,-0.0150146484375,0.09564208984375,0.059814453125,0.9935302734375,[0. 0. 0. 0. 0. 0. 0. 0. 0.],-0.0234375,0.005859375,0.2578125,[0. 0. 0. 0. 0. 0. 0. 0. 0.],-1.76171875,-0.65234375,9.50390625,[0. 0. 0. 0. 0. 0. 0. 0. 0.]
1742667640677257301,1742667640,670748875,imu_link,-0.0150146484375,0.09564208984375,0.059814453125,0.9935302734375,[0. 0. 0. 0. 0. 0. 0. 0. 0.],-0.01171875,0.001953125,0.283203125,[0. 0. 0. 0. 0. 0. 0. 0. 0.],-1.76171875,-0.65234375,9.50390625,[0. 0. 0. 0. 0. 0. 0. 0. 0.]
1742667640697271171,1742667640,693760949,imu_link,-0.014892578125,0.095458984375,0.0667724609375,0.99310302734375,[0. 0. 0. 0. 0. 0. 0. 0. 0.],-0.01171875,0.001953125,0.283203125,[0. 0. 0. 0. 0. 0. 0. 0. 0.],-1.87890625,-0.4609375,9.69140625,[0. 0. 0. 0. 0. 0. 0. 0. 0.]
1742667640723154931,1742667640,710727745,imu_link,-0.014892578125,0.095458984375,0.0667724609375,0.99310302734375,[0. 0. 0. 0. 0. 0. 0. 0. 0.],-0.0078125,0.0078125,0.29296875,[0. 0. 0. 0. 0. 0. 0. 0. 0.],-2.0703125,-0.34375,9.609375,[0. 0. 0. 0. 0. 0. 0. 0. 0.]
1742667640749928782,1742667640,731259449,imu_link,-0.01483154296875,0.09527587890625,0.07403564453125,0.9925537109375,[0. 0. 0. 0. 0. 0. 0. 0. 0.],-0.0078125,0.0078125,0.29296875,[0. 0. 0. 0. 0. 0. 0. 0. 0.],-2.0703125,-0.34375,9.609375,[0. 0. 0. 0. 0. 0. 0. 0. 0.]
1742667640755445134,1742667640,751699097,imu_link,-0.01483154296875,0.09527587890625,0.07403564453125,0.9925537109375,[0. 0. 0. 0. 0. 0. 0. 0. 0.],-0.0078125,0.0078125,0.29296875,[0. 0. 0. 0. 0. 0. 0. 0. 0.],-2.22265625,-0.15234375,9.609375,[0. 0. 0. 0. 0. 0. 0. 0. 0.]
1742667640780999227,1742667640,770752245,imu_link,-0.01483154296875,0.09527587890625,0.07403564453125,0.9925537109375,[0. 0. 0. 0. 0. 0. 0. 0. 0.],-0.01171875,0.00390625,0.302734375,[0. 0. 0. 0. 0. 0. 0. 0. 0.],-2.26171875,-0.3046875,9.5,[0. 0. 0. 0. 0. 0. 0. 0. 0.]
1742667640797065875,1742667640,793414838,imu_link,-0.01483154296875,0.0950927734375,0.08148193359375,0.99200439453125,[0. 0. 0. 0. 0. 0. 0. 0. 0.],-0.01171875,0.00390625,0.302734375,[0. 0. 0. 0. 0. 0. 0. 0. 0.],-2.26171875,-0.3046875,9.5,[0. 0. 0. 0. 0. 0. 0. 0. 0.]
1742667640821439338,1742667640,810755801,imu_link,-0.01483154296875,0.0950927734375,0.08148193359375,0.99200439453125,[0. 0. 0. 0. 0. 0. 0. 0. 0.],-0.015625,0.001953125,0.30859375,[0. 0. 0. 0. 0. 0. 0. 0. 0.],-2.296875,-0.3046875,9.578125,[0. 0. 0. 0. 0. 0. 0. 0. 0.]
1742667640846520301,1742667640,831022801,imu_link,-0.01483154296875,0.0948486328125,0.0892333984375,0.99139404296875,[0. 0. 0. 0. 0. 0. 0. 0. 0.],-0.015625,0.001953125,0.30859375,[0. 0. 0. 0. 0. 0. 0. 0. 0.],-2.18359375,-0.3046875,9.50390625,[0. 0. 0. 0. 0. 0. 0. 0. 0.]
1742667640853881319,1742667640,850761190,imu_link,-0.01483154296875,0.0948486328125,0.0892333984375,0.99139404296875,[0. 0. 0. 0. 0. 0. 0. 0. 0.],-0.015625,0.001953125,0.30859375,[0. 0. 0. 0. 0. 0. 0. 0. 0.],-2.18359375,-0.3046875,9.50390625,[0. 0. 0. 0. 0. 0. 0. 0. 0.]
1742667640893734597,1742667640,870805116,imu_link,-0.0147705078125,0.0946044921875,0.0970458984375,0.99066162109375,[0. 0. 0. 0. 0. 0. 0. 0. 0.],-0.025390625,0.00390625,0.314453125,[0. 0. 0. 0. 0. 0. 0. 0. 0.],-2.10546875,-0.34375,9.6484375,[0. 0. 0. 0. 0. 0. 0. 0. 0.]
1742667640901905097,1742667640,896399690,imu_link,-0.0147705078125,0.0946044921875,0.0970458984375,0.99066162109375,[0. 0. 0. 0. 0. 0. 0. 0. 0.],-0.025390625,0.00390625,0.314453125,[0. 0. 0. 0. 0. 0. 0. 0. 0.],-2.10546875,-0.34375,9.6484375,[0. 0. 0. 0. 0. 0. 0. 0. 0.]
1742667640918145356,1742667640,910740634,imu_link,-0.0147705078125,0.0946044921875,0.0970458984375,0.99066162109375,[0. 0. 0. 0. 0. 0. 0. 0. 0.],-0.01953125,0.0078125,0.3359375,[0. 0. 0. 0. 0. 0. 0. 0. 0.],-2.03125,-0.421875,9.54296875,[0. 0. 0. 0. 0. 0. 0. 0. 0.]
1742667640945014671,1742667640,931168393,imu_link,-0.01470947265625,0.094482421875,0.105224609375,0.9898681640625,[0. 0. 0. 0. 0. 0. 0. 0. 0.],-0.01953125,0.0078125,0.3359375,[0. 0. 0. 0. 0. 0. 0. 0. 0.],-1.9921875,-0.3046875,9.6484375,[0. 0. 0. 0. 0. 0. 0. 0. 0.]
1742667640953727560,1742667640,950713949,imu_link,-0.01470947265625,0.094482421875,0.105224609375,0.9898681640625,[0. 0. 0. 0. 0. 0. 0. 0. 0.],-0.01953125,0.0078125,0.3359375,[0. 0. 0. 0. 0. 0. 0. 0. 0.],-1.9921875,-0.3046875,9.6484375,[0. 0. 0. 0. 0. 0. 0. 0. 0.]
1742667640992572653,1742667640,970790449,imu_link,-0.01458740234375,0.09442138671875,0.1134033203125,0.98895263671875,[0. 0. 0. 0. 0. 0. 0. 0. 0.],-0.01171875,0.0078125,0.337890625,[0. 0. 0. 0. 0. 0. 0. 0. 0.],-1.80078125,-0.34375,9.578125,[0. 0. 0. 0. 0. 0. 0. 0. 0.]
1742667641001119745,1742667640,999377616,imu_link,-0.01458740234375,0.09442138671875,0.1134033203125,0.98895263671875,[0. 0. 0. 0. 0. 0. 0. 0. 0.],-0.01171875,0.0078125,0.337890625,[0. 0. 0. 0. 0. 0. 0. 0. 0.],-1.83984375,-0.3828125,9.54296875,[0. 0. 0. 0. 0. 0. 0. 0. 0.]
1742667641018925690,1742667641,10745116,imu_link,-0.01458740234375,0.09442138671875,0.1134033203125,0.98895263671875,[0. 0. 0. 0. 0. 0. 0. 0. 0.],-0.0234375,0.001953125,0.349609375,[0. 0. 0. 0. 0. 0. 0. 0. 0.],-1.83984375,-0.3828125,9.54296875,[0. 0. 0. 0. 0. 0. 0. 0. 0.]
1742667641045958023,1742667641,31453653,imu_link,-0.0145263671875,0.09423828125,0.1220703125,0.9879150390625,[0. 0. 0. 0. 0. 0. 0. 0. 0.],-0.0234375,0.001953125,0.349609375,[0. 0. 0. 0. 0. 0. 0. 0. 0.],-1.609375,-0.26953125,9.5390625,[0. 0. 0. 0. 0. 0. 0. 0. 0.]
1742667641054256282,1742667641,50747412,imu_link,-0.0145263671875,0.09423828125,0.1220703125,0.9879150390625,[0. 0. 0. 0. 0. 0. 0. 0. 0.],-0.0234375,0.001953125,0.349609375,[0. 0. 0. 0. 0. 0. 0. 0. 0.],-1.609375,-0.26953125,9.5390625,[0. 0. 0. 0. 0. 0. 0. 0. 0.]
1742667641078845838,1742667641,70717245,imu_link,-0.0145263671875,0.09423828125,0.1220703125,0.9879150390625,[0. 0. 0. 0. 0. 0. 0. 0. 0.],-0.013671875,0.0078125,0.322265625,[0. 0. 0. 0. 0. 0. 0. 0. 0.],-1.80078125,-0.11328125,9.61328125,[0. 0. 0. 0. 0. 0. 0. 0. 0.]
1742667641106147949,1742667641,90811504,imu_link,-0.014404296875,0.09423828125,0.130126953125,0.98687744140625,[0. 0. 0. 0. 0. 0. 0. 0. 0.],-0.013671875,0.0078125,0.322265625,[0. 0. 0. 0. 0. 0. 0. 0. 0.],-1.9140625,0.078125,9.578125,[0. 0. 0. 0. 0. 0. 0. 0. 0.]
1742667641118385375,1742667641,110699375,imu_link,-0.014404296875,0.09423828125,0.130126953125,0.98687744140625,[0. 0. 0. 0. 0. 0. 0. 0. 0.],-0.01953125,0.00390625,0.291015625,[0. 0. 0. 0. 0. 0. 0. 0. 0.],-1.9140625,0.078125,9.578125,[0. 0. 0. 0. 0. 0. 0. 0. 0.]
1742667641143427078,1742667641,130933801,imu_link,-0.01446533203125,0.09417724609375,0.13726806640625,0.9859619140625,[0. 0. 0. 0. 0. 0. 0. 0. 0.],-0.01953125,0.00390625,0.291015625,[0. 0. 0. 0. 0. 0. 0. 0. 0.],-2.03125,0.15234375,9.5,[0. 0. 0. 0. 0. 0. 0. 0. 0.]
1742667641158360078,1742667641,150794634,imu_link,-0.01446533203125,0.09417724609375,0.13726806640625,0.9859619140625,[0. 0. 0. 0. 0. 0. 0. 0. 0.],-0.01953125,0.00390625,0.291015625,[0. 0. 0. 0. 0. 0. 0. 0. 0.],-2.03125,0.15234375,9.5,[0. 0. 0. 0. 0. 0. 0. 0. 0.]
1742667641178875819,1742667641,170746486,imu_link,-0.01446533203125,0.09417724609375,0.13726806640625,0.9859619140625,[0. 0. 0. 0. 0. 0. 0. 0. 0.],-0.013671875,0.00390625,0.234375,[0. 0. 0. 0. 0. 0. 0. 0. 0.],-2.0703125,0.3046875,9.65234375,[0. 0. 0. 0. 0. 0. 0. 0. 0.]
1742667641205770708,1742667641,190898912,imu_link,-0.01446533203125,0.0941162109375,0.14312744140625,0.985107421875,[0. 0. 0. 0. 0. 0. 0. 0. 0.],-0.013671875,0.00390625,0.234375,[0. 0. 0. 0. 0. 0. 0. 0. 0.],-2.10546875,0.26953125,9.46484375,[0. 0. 0. 0. 0. 0. 0. 0. 0.]
1742667641221183967,1742667641,210728004,imu_link,-0.01446533203125,0.0941162109375,0.14312744140625,0.985107421875,[0. 0. 0. 0. 0. 0. 0. 0. 0.],-0.0078125,0.001953125,0.193359375,[0. 0. 0. 0. 0. 0. 0. 0. 0.],-2.10546875,0.23046875,9.61328125,[0. 0. 0. 0. 0. 0. 0. 0. 0.]
1742667641245203023,1742667641,231199282,imu_link,-0.0145263671875,0.09405517578125,0.14788818359375,0.98443603515625,[0. 0. 0. 0. 0. 0. 0. 0. 0.],-0.0078125,0.001953125,0.193359375,[0. 0. 0. 0. 0. 0. 0. 0. 0.],-2.10546875,0.23046875,9.61328125,[0. 0. 0. 0. 0. 0. 0. 0. 0.]
1742667641254685264,1742667641,251325023,imu_link,-0.0145263671875,0.09405517578125,0.14788818359375,0.98443603515625,[0. 0. 0. 0. 0. 0. 0. 0. 0.],-0.0078125,0.001953125,0.193359375,[0. 0. 0. 0. 0. 0. 0. 0. 0.],-2.10546875,0.34375,9.50390625,[0. 0. 0. 0. 0. 0. 0. 0. 0.]
1742667641291201597,1742667641,270785486,imu_link,-0.0147705078125,0.093994140625,0.15020751953125,0.98406982421875,[0. 0. 0. 0. 0. 0. 0. 0. 0.],-0.005859375,0.001953125,0.080078125,[0. 0. 0. 0. 0. 0. 0. 0. 0.],-2.10546875,0.34375,9.50390625,[0. 0. 0. 0. 0. 0. 0. 0. 0.]
1742667641297766245,1742667641,294063782,imu_link,-0.0147705078125,0.093994140625,0.15020751953125,0.98406982421875,[0. 0. 0. 0. 0. 0. 0. 0. 0.],-0.005859375,0.001953125,0.080078125,[0. 0. 0. 0. 0. 0. 0. 0. 0.],-1.9140625,0.53515625,9.61328125,[0. 0. 0. 0. 0. 0. 0. 0. 0.]
1742667641321823338,1742667641,310720726,imu_link,-0.0147705078125,0.093994140625,0.15020751953125,0.98406982421875,[0. 0. 0. 0. 0. 0. 0. 0. 0.],0.005859375,0.00390625,-0.0078125,[0. 0. 0. 0. 0. 0. 0. 0. 0.],-1.76171875,0.57421875,9.5,[0. 0. 0. 0. 0. 0. 0. 0. 0.]
1742667641348369115,1742667641,330956189,imu_link,-0.01507568359375,0.0938720703125,0.15020751953125,0.98406982421875,[0. 0. 0. 0. 0. 0. 0. 0. 0.],0.005859375,0.00390625,-0.0078125,[0. 0. 0. 0. 0. 0. 0. 0. 0.],-1.76171875,0.57421875,9.5,[0. 0. 0. 0. 0. 0. 0. 0. 0.]
1742667641354066301,1742667641,350693708,imu_link,-0.01507568359375,0.0938720703125,0.15020751953125,0.98406982421875,[0. 0. 0. 0. 0. 0. 0. 0. 0.],0.005859375,0.00390625,-0.0078125,[0. 0. 0. 0. 0. 0. 0. 0. 0.],-1.68359375,0.69140625,9.609375,[0. 0. 0. 0. 0. 0. 0. 0. 0.]
1742667641391911523,1742667641,370761893,imu_link,-0.01556396484375,0.0938720703125,0.14794921875,0.98443603515625,[0. 0. 0. 0. 0. 0. 0. 0. 0.],0.005859375,0.009765625,-0.1015625,[0. 0. 0. 0. 0. 0. 0. 0. 0.],-1.76171875,0.65234375,9.58203125,[0. 0. 0. 0. 0. 0. 0. 0. 0.]
1742667641398005801,1742667641,394561152,imu_link,-0.01556396484375,0.0938720703125,0.14794921875,0.98443603515625,[0. 0. 0. 0. 0. 0. 0. 0. 0.],0.005859375,0.009765625,-0.1015625,[0. 0. 0. 0. 0. 0. 0. 0. 0.],-1.76171875,0.65234375,9.58203125,[0. 0. 0. 0. 0. 0. 0. 0. 0.]
1742667641421618986,1742667641,410737245,imu_link,-0.01556396484375,0.0938720703125,0.14794921875,0.98443603515625,[0. 0. 0. 0. 0. 0. 0. 0. 0.],0.005859375,0.013671875,-0.193359375,[0. 0. 0. 0. 0. 0. 0. 0. 0.],-1.83984375,0.3828125,9.50390625,[0. 0. 0. 0. 0. 0. 0. 0. 0.]
1742667641445504319,1742667641,431196393,imu_link,-0.01617431640625,0.09393310546875,0.143310546875,0.985107421875,[0. 0. 0. 0. 0. 0. 0. 0. 0.],0.005859375,0.013671875,-0.193359375,[0. 0. 0. 0. 0. 0. 0. 0. 0.],-2.03125,0.11328125,9.578125,[0. 0. 0. 0. 0. 0. 0. 0. 0.]
1742667641454081208,1742667641,450710930,imu_link,-0.01617431640625,0.09393310546875,0.143310546875,0.985107421875,[0. 0. 0. 0. 0. 0. 0. 0. 0.],0.005859375,0.013671875,-0.193359375,[0. 0. 0. 0. 0. 0. 0. 0. 0.],-2.03125,0.11328125,9.578125,[0. 0. 0. 0. 0. 0. 0. 0. 0.]
1742667641492767449,1742667641,470952708,imu_link,-0.01678466796875,0.0938720703125,0.13787841796875,0.98583984375,[0. 0. 0. 0. 0. 0. 0. 0. 0.],0.0078125,0.01171875,-0.224609375,[0. 0. 0. 0. 0. 0. 0. 0. 0.],-2.18359375,-0.11328125,9.3828125,[0. 0. 0. 0. 0. 0. 0. 0. 0.]
1742667641497734393,1742667641,495519412,imu_link,-0.01678466796875,0.0938720703125,0.13787841796875,0.98583984375,[0. 0. 0. 0. 0. 0. 0. 0. 0.],0.0078125,0.01171875,-0.224609375,[0. 0. 0. 0. 0. 0. 0. 0. 0.],-2.18359375,-0.11328125,9.3828125,[0. 0. 0. 0. 0. 0. 0. 0. 0.]
1742667641518294856,1742667641,510873671,imu_link,-0.01678466796875,0.0938720703125,0.13787841796875,0.98583984375,[0. 0. 0. 0. 0. 0. 0. 0. 0.],0.005859375,0.00390625,-0.259765625,[0. 0. 0. 0. 0. 0. 0. 0. 0.],-2.296875,-0.3046875,9.6875,[0. 0. 0. 0. 0. 0. 0. 0. 0.]
1742667641544980634,1742667641,531066078,imu_link,-0.01739501953125,0.09381103515625,0.131591796875,0.9866943359375,[0. 0. 0. 0. 0. 0. 0. 0. 0.],0.005859375,0.00390625,-0.259765625,[0. 0. 0. 0. 0. 0. 0. 0. 0.],-2.18359375,-0.49609375,9.5,[0. 0. 0. 0. 0. 0. 0. 0. 0.]
1742667641554201912,1742667641,550766412,imu_link,-0.01739501953125,0.09381103515625,0.131591796875,0.9866943359375,[0. 0. 0. 0. 0. 0. 0. 0. 0.],0.005859375,0.00390625,-0.259765625,[0. 0. 0. 0. 0. 0. 0. 0. 0.],-2.18359375,-0.49609375,9.5,[0. 0. 0. 0. 0. 0. 0. 0. 0.]
1742667641592182911,1742667641,570877763,imu_link,-0.01788330078125,0.09381103515625,0.1259765625,0.9874267578125,[0. 0. 0. 0. 0. 0. 0. 0. 0.],0.0,0.00390625,-0.220703125,[0. 0. 0. 0. 0. 0. 0. 0. 0.],-2.10546875,-0.53515625,9.6484375,[0. 0. 0. 0. 0. 0. 0. 0. 0.]
1742667641601206449,1742667641,598784800,imu_link,-0.01788330078125,0.09381103515625,0.1259765625,0.9874267578125,[0. 0. 0. 0. 0. 0. 0. 0. 0.],0.0,0.00390625,-0.220703125,[0. 0. 0. 0. 0. 0. 0. 0. 0.],-2.0703125,-0.49609375,9.50390625,[0. 0. 0. 0. 0. 0. 0. 0. 0.]
1742667641618777726,1742667641,610698263,imu_link,-0.01788330078125,0.09381103515625,0.1259765625,0.9874267578125,[0. 0. 0. 0. 0. 0. 0. 0. 0.],0.005859375,0.00390625,-0.220703125,[0. 0. 0. 0. 0. 0. 0. 0. 0.],-2.0703125,-0.49609375,9.50390625,[0. 0. 0. 0. 0. 0. 0. 0. 0.]
1742667641645251560,1742667641,630865986,imu_link,-0.01824951171875,0.09375,0.12054443359375,0.98809814453125,[0. 0. 0. 0. 0. 0. 0. 0. 0.],0.005859375,0.00390625,-0.220703125,[0. 0. 0. 0. 0. 0. 0. 0. 0.],-1.9921875,-0.49609375,9.578125,[0. 0. 0. 0. 0. 0. 0. 0. 0.]
1742667641654256967,1742667641,650769560,imu_link,-0.01824951171875,0.09375,0.12054443359375,0.98809814453125,[0. 0. 0. 0. 0. 0. 0. 0. 0.],0.005859375,0.00390625,-0.220703125,[0. 0. 0. 0. 0. 0. 0. 0. 0.],-1.9921875,-0.49609375,9.578125,[0. 0. 0. 0. 0. 0. 0. 0. 0.]
1742667641674485837,1742667641,670885578,imu_link,-0.01824951171875,0.09375,0.12054443359375,0.98809814453125,[0. 0. 0. 0. 0. 0. 0. 0. 0.],0.00390625,0.00390625,-0.216796875,[0. 0. 0. 0. 0. 0. 0. 0. 0.],-1.80078125,-0.3046875,9.58203125,[0. 0. 0. 0. 0. 0. 0. 0. 0.]
1742667641705408652,1742667641,691218226,imu_link,-0.0186767578125,0.09375,0.115234375,0.98870849609375,[0. 0. 0. 0. 0. 0. 0. 0. 0.],0.00390625,0.00390625,-0.216796875,[0. 0. 0. 0. 0. 0. 0. 0. 0.],-1.76171875,-0.19140625,9.578125,[0. 0. 0. 0. 0. 0. 0. 0. 0.]
1742667641717933263,1742667641,710698874,imu_link,-0.0186767578125,0.09375,0.115234375,0.98870849609375,[0. 0. 0. 0. 0. 0. 0. 0. 0.],0.015625,0.00390625,-0.2265625,[0. 0. 0. 0. 0. 0. 0. 0. 0.],-1.76171875,-0.19140625,9.578125,[0. 0. 0. 0. 0. 0. 0. 0. 0.]
1742667641745187800,1742667641,730853374,imu_link,-0.01904296875,0.09375,0.1094970703125,0.9893798828125,[0. 0. 0. 0. 0. 0. 0. 0. 0.],0.015625,0.00390625,-0.2265625,[0. 0. 0. 0. 0. 0. 0. 0. 0.],-1.72265625,-0.078125,9.58203125,[0. 0. 0. 0. 0. 0. 0. 0. 0.]
1742667641758219578,1742667641,750811467,imu_link,-0.01904296875,0.09375,0.1094970703125,0.9893798828125,[0. 0. 0. 0. 0. 0. 0. 0. 0.],0.015625,0.00390625,-0.2265625,[0. 0. 0. 0. 0. 0. 0. 0. 0.],-1.80078125,-0.078125,9.578125,[0. 0. 0. 0. 0. 0. 0. 0. 0.]
1742667641774350189,1742667641,770838115,imu_link,-0.01904296875,0.09375,0.1094970703125,0.9893798828125,[0. 0. 0. 0. 0. 0. 0. 0. 0.],0.01171875,0.00390625,-0.259765625,[0. 0. 0. 0. 0. 0. 0. 0. 0.],-1.80078125,-0.078125,9.578125,[0. 0. 0. 0. 0. 0. 0. 0. 0.]
1742667641805146208,1742667641,790737208,imu_link,-0.01953125,0.09368896484375,0.10321044921875,0.99005126953125,[0. 0. 0. 0. 0. 0. 0. 0. 0.],0.01171875,0.00390625,-0.259765625,[0. 0. 0. 0. 0. 0. 0. 0. 0.],-2.03125,-0.15234375,9.61328125,[0. 0. 0. 0. 0. 0. 0. 0. 0.]
1742667641821038911,1742667641,810732411,imu_link,-0.01953125,0.09368896484375,0.10321044921875,0.99005126953125,[0. 0. 0. 0. 0. 0. 0. 0. 0.],0.005859375,0.005859375,-0.28515625,[0. 0. 0. 0. 0. 0. 0. 0. 0.],-2.18359375,-0.19140625,9.54296875,[0. 0. 0. 0. 0. 0. 0. 0. 0.]
1742667641844690171,1742667641,831242393,imu_link,-0.0201416015625,0.09375,0.09619140625,0.99072265625,[0. 0. 0. 0. 0. 0. 0. 0. 0.],0.005859375,0.005859375,-0.28515625,[0. 0. 0. 0. 0. 0. 0. 0. 0.],-2.18359375,-0.19140625,9.54296875,[0. 0. 0. 0. 0. 0. 0. 0. 0.]
1742667641855454930,1742667641,851896356,imu_link,-0.0201416015625,0.09375,0.09619140625,0.99072265625,[0. 0. 0. 0. 0. 0. 0. 0. 0.],0.005859375,0.005859375,-0.28515625,[0. 0. 0. 0. 0. 0. 0. 0. 0.],-2.26171875,-0.19140625,9.5390625,[0. 0. 0. 0. 0. 0. 0. 0. 0.]
1742667641889349948,1742667641,870857948,imu_link,-0.0206298828125,0.09368896484375,0.08880615234375,0.99139404296875,[0. 0. 0. 0. 0. 0. 0. 0. 0.],0.009765625,0.0,-0.302734375,[0. 0. 0. 0. 0. 0. 0. 0. 0.],-2.26171875,-0.19140625,9.5390625,[0. 0. 0. 0. 0. 0. 0. 0. 0.]
1742667641895496967,1742667641,892157837,imu_link,-0.0206298828125,0.09368896484375,0.08880615234375,0.99139404296875,[0. 0. 0. 0. 0. 0. 0. 0. 0.],0.009765625,0.0,-0.302734375,[0. 0. 0. 0. 0. 0. 0. 0. 0.],-2.26171875,-0.26953125,9.58203125,[0. 0. 0. 0. 0. 0. 0. 0. 0.]
1742667641922826337,1742667641,910765856,imu_link,-0.0206298828125,0.09368896484375,0.08880615234375,0.99139404296875,[0. 0. 0. 0. 0. 0. 0. 0. 0.],0.0078125,-0.001953125,-0.302734375,[0. 0. 0. 0. 0. 0. 0. 0. 0.],-2.14453125,-0.4609375,9.578125,[0. 0. 0. 0. 0. 0. 0. 0. 0.]
1742667641947799578,1742667641,930814208,imu_link,-0.02117919921875,0.09381103515625,0.0811767578125,0.9920654296875,[0. 0. 0. 0. 0. 0. 0. 0. 0.],0.0078125,-0.001953125,-0.302734375,[0. 0. 0. 0. 0. 0. 0. 0. 0.],-2.03125,-0.57421875,9.58203125,[0. 0. 0. 0. 0. 0. 0. 0. 0.]
1742667641954132263,1742667641,950714152,imu_link,-0.02117919921875,0.09381103515625,0.0811767578125,0.9920654296875,[0. 0. 0. 0. 0. 0. 0. 0. 0.],0.0078125,-0.001953125,-0.302734375,[0. 0. 0. 0. 0. 0. 0. 0. 0.],-2.03125,-0.57421875,9.58203125,[0. 0. 0. 0. 0. 0. 0. 0. 0.]
1742667641992318226,1742667641,970899689,imu_link,-0.02178955078125,0.0941162109375,0.0738525390625,0.9925537109375,[0. 0. 0. 0. 0. 0. 0. 0. 0.],0.015625,0.00390625,-0.29296875,[0. 0. 0. 0. 0. 0. 0. 0. 0.],-2.03125,-0.4609375,9.61328125,[0. 0. 0. 0. 0. 0. 0. 0. 0.]
1742667641997144782,1742667641,994995967,imu_link,-0.02178955078125,0.0941162109375,0.0738525390625,0.9925537109375,[0. 0. 0. 0. 0. 0. 0. 0. 0.],0.015625,0.00390625,-0.29296875,[0. 0. 0. 0. 0. 0. 0. 0. 0.],-2.03125,-0.4609375,9.61328125,[0. 0. 0. 0. 0. 0. 0. 0. 0.]
1742667642022197689,1742667642,10828652,imu_link,-0.02178955078125,0.0941162109375,0.0738525390625,0.9925537109375,[0. 0. 0. 0. 0. 0. 0. 0. 0.],0.005859375,0.00390625,-0.291015625,[0. 0. 0. 0. 0. 0. 0. 0. 0.],-1.953125,-0.34375,9.578125,[0. 0. 0. 0. 0. 0. 0. 0. 0.]
1742667642045198282,1742667642,30793300,imu_link,-0.02252197265625,0.094482421875,0.066650390625,0.9930419921875,[0. 0. 0. 0. 0. 0. 0. 0. 0.],0.005859375,0.00390625,-0.291015625,[0. 0. 0. 0. 0. 0. 0. 0. 0.],-1.9140625,-0.26953125,9.61328125,[0. 0. 0. 0. 0. 0. 0. 0. 0.]
1742667642054179708,1742667642,50725708,imu_link,-0.02252197265625,0.094482421875,0.066650390625,0.9930419921875,[0. 0. 0. 0. 0. 0. 0. 0. 0.],0.005859375,0.00390625,-0.291015625,[0. 0. 0. 0. 0. 0. 0. 0. 0.],-1.9140625,-0.26953125,9.61328125,[0. 0. 0. 0. 0. 0. 0. 0. 0.]
1742667642092887319,1742667642,70827374,imu_link,-0.02325439453125,0.09490966796875,0.0592041015625,0.99346923828125,[0. 0. 0. 0. 0. 0. 0. 0. 0.],0.009765625,0.0078125,-0.302734375,[0. 0. 0. 0. 0. 0. 0. 0. 0.],-1.953125,-0.15234375,9.5390625,[0. 0. 0. 0. 0. 0. 0. 0. 0.]
1742667642098033448,1742667642,95590133,imu_link,-0.02325439453125,0.09490966796875,0.0592041015625,0.99346923828125,[0. 0. 0. 0. 0. 0. 0. 0. 0.],0.009765625,0.0078125,-0.302734375,[0. 0. 0. 0. 0. 0. 0. 0. 0.],-1.953125,-0.15234375,9.5390625,[0. 0. 0. 0. 0. 0. 0. 0. 0.]
1742667642122983356,1742667642,110743189,imu_link,-0.02325439453125,0.09490966796875,0.0592041015625,0.99346923828125,[0. 0. 0. 0. 0. 0. 0. 0. 0.],0.015625,0.005859375,-0.33203125,[0. 0. 0. 0. 0. 0. 0. 0. 0.],-1.9921875,-0.078125,9.5,[0. 0. 0. 0. 0. 0. 0. 0. 0.]
1742667642144896911,1742667642,130784615,imu_link,-0.02392578125,0.09515380859375,0.05096435546875,0.993896484375,[0. 0. 0. 0. 0. 0. 0. 0. 0.],0.015625,0.005859375,-0.33203125,[0. 0. 0. 0. 0. 0. 0. 0. 0.],-2.03125,-0.26953125,9.61328125,[0. 0. 0. 0. 0. 0. 0. 0. 0.]
1742667642155001911,1742667642,150836152,imu_link,-0.02392578125,0.09515380859375,0.05096435546875,0.993896484375,[0. 0. 0. 0. 0. 0. 0. 0. 0.],0.015625,0.005859375,-0.33203125,[0. 0. 0. 0. 0. 0. 0. 0. 0.],-2.03125,-0.26953125,9.61328125,[0. 0. 0. 0. 0. 0. 0. 0. 0.]
1742667642188727467,1742667642,170883374,imu_link,-0.0245361328125,0.095458984375,0.04296875,0.99420166015625,[0. 0. 0. 0. 0. 0. 0. 0. 0.],0.009765625,0.009765625,-0.3203125,[0. 0. 0. 0. 0. 0. 0. 0. 0.],-1.87890625,-0.53515625,9.6484375,[0. 0. 0. 0. 0. 0. 0. 0. 0.]
1742667642198293337,1742667642,191065374,imu_link,-0.0245361328125,0.095458984375,0.04296875,0.99420166015625,[0. 0. 0. 0. 0. 0. 0. 0. 0.],0.009765625,0.009765625,-0.3203125,[0. 0. 0. 0. 0. 0. 0. 0. 0.],-1.87890625,-0.53515625,9.6484375,[0. 0. 0. 0. 0. 0. 0. 0. 0.]
1742667642217244133,1742667642,210718782,imu_link,-0.0245361328125,0.095458984375,0.04296875,0.99420166015625,[0. 0. 0. 0. 0. 0. 0. 0. 0.],0.025390625,0.001953125,-0.322265625,[0. 0. 0. 0. 0. 0. 0. 0. 0.],-1.87890625,-0.49609375,9.50390625,[0. 0. 0. 0. 0. 0. 0. 0. 0.]
1742667642245038300,1742667642,230815559,imu_link,-0.0247802734375,0.09564208984375,0.03497314453125,0.9945068359375,[0. 0. 0. 0. 0. 0. 0. 0. 0.],0.025390625,0.001953125,-0.322265625,[0. 0. 0. 0. 0. 0. 0. 0. 0.],-1.68359375,-0.69140625,9.609375,[0. 0. 0. 0. 0. 0. 0. 0. 0.]
1742667642254074893,1742667642,250704893,imu_link,-0.0247802734375,0.09564208984375,0.03497314453125,0.9945068359375,[0. 0. 0. 0. 0. 0. 0. 0. 0.],0.025390625,0.001953125,-0.322265625,[0. 0. 0. 0. 0. 0. 0. 0. 0.],-1.68359375,-0.69140625,9.609375,[0. 0. 0. 0. 0. 0. 0. 0. 0.]
1742667642294825207,1742667642,270924707,imu_link,-0.02508544921875,0.0958251953125,0.0289306640625,0.99468994140625,[0. 0. 0. 0. 0. 0. 0. 0. 0.],0.01171875,0.00390625,-0.23046875,[0. 0. 0. 0. 0. 0. 0. 0. 0.],-1.5703125,-0.91796875,9.58203125,[0. 0. 0. 0. 0. 0. 0. 0. 0.]
1742667642299065004,1742667642,297014022,imu_link,-0.02508544921875,0.0958251953125,0.0289306640625,0.99468994140625,[0. 0. 0. 0. 0. 0. 0. 0. 0.],0.01171875,0.00390625,-0.23046875,[0. 0. 0. 0. 0. 0. 0. 0. 0.],-1.68359375,-0.95703125,9.578125,[0. 0. 0. 0. 0. 0. 0. 0. 0.]
1742667642317673522,1742667642,310720874,imu_link,-0.02508544921875,0.0958251953125,0.0289306640625,0.99468994140625,[0. 0. 0. 0. 0. 0. 0. 0. 0.],0.015625,0.001953125,-0.205078125,[0. 0. 0. 0. 0. 0. 0. 0. 0.],-1.68359375,-0.95703125,9.578125,[0. 0. 0. 0. 0. 0. 0. 0. 0.]
1742667642345455559,1742667642,331250504,imu_link,-0.02545166015625,0.095947265625,0.0238037109375,0.9947509765625,[0. 0. 0. 0. 0. 0. 0. 0. 0.],0.015625,0.001953125,-0.205078125,[0. 0. 0. 0. 0. 0. 0. 0. 0.],-1.6484375,-0.99609375,9.61328125,[0. 0. 0. 0. 0. 0. 0. 0. 0.]
1742667642357273559,1742667642,350703615,imu_link,-0.02545166015625,0.095947265625,0.0238037109375,0.9947509765625,[0. 0. 0. 0. 0. 0. 0. 0. 0.],0.015625,0.001953125,-0.205078125,[0. 0. 0. 0. 0. 0. 0. 0. 0.],-1.609375,-0.8828125,9.61328125,[0. 0. 0. 0. 0. 0. 0. 0. 0.]
1742667642374711041,1742667642,371249207,imu_link,-0.02545166015625,0.095947265625,0.0238037109375,0.9947509765625,[0. 0. 0. 0. 0. 0. 0. 0. 0.],-0.001953125,0.005859375,-0.1328125,[0. 0. 0. 0. 0. 0. 0. 0. 0.],-1.609375,-0.8828125,9.61328125,[0. 0. 0. 0. 0. 0. 0. 0. 0.]
1742667642406116874,1742667642,390781467,imu_link,-0.02587890625,0.0960693359375,0.02032470703125,0.99481201171875,[0. 0. 0. 0. 0. 0. 0. 0. 0.],-0.001953125,0.005859375,-0.1328125,[0. 0. 0. 0. 0. 0. 0. 0. 0.],-1.6484375,-0.91796875,9.61328125,[0. 0. 0. 0. 0. 0. 0. 0. 0.]
1742667642422222818,1742667642,410822707,imu_link,-0.02587890625,0.0960693359375,0.02032470703125,0.99481201171875,[0. 0. 0. 0. 0. 0. 0. 0. 0.],-0.001953125,0.009765625,-0.078125,[0. 0. 0. 0. 0. 0. 0. 0. 0.],-1.953125,-0.53515625,9.5390625,[0. 0. 0. 0. 0. 0. 0. 0. 0.]
1742667642444180522,1742667642,430961059,imu_link,-0.02618408203125,0.0963134765625,0.0181884765625,0.99481201171875,[0. 0. 0. 0. 0. 0. 0. 0. 0.],-0.001953125,0.009765625,-0.078125,[0. 0. 0. 0. 0. 0. 0. 0. 0.],-1.953125,-0.53515625,9.5390625,[0. 0. 0. 0. 0. 0. 0. 0. 0.]
1742667642454122874,1742667642,450696152,imu_link,-0.02618408203125,0.0963134765625,0.0181884765625,0.99481201171875,[0. 0. 0. 0. 0. 0. 0. 0. 0.],-0.001953125,0.009765625,-0.078125,[0. 0. 0. 0. 0. 0. 0. 0. 0.],-1.9921875,-0.421875,9.609375,[0. 0. 0. 0. 0. 0. 0. 0. 0.]
1742667642478007596,1742667642,470825300,imu_link,-0.02618408203125,0.0963134765625,0.0181884765625,0.99481201171875,[0. 0. 0. 0. 0. 0. 0. 0. 0.],-0.001953125,0.005859375,-0.0859375,[0. 0. 0. 0. 0. 0. 0. 0. 0.],-1.9921875,-0.421875,9.609375,[0. 0. 0. 0. 0. 0. 0. 0. 0.]
1742667642494954337,1742667642,491586818,imu_link,-0.0264892578125,0.096435546875,0.01605224609375,0.994873046875,[0. 0. 0. 0. 0. 0. 0. 0. 0.],-0.001953125,0.005859375,-0.0859375,[0. 0. 0. 0. 0. 0. 0. 0. 0.],-1.9140625,-0.4609375,9.4609375,[0. 0. 0. 0. 0. 0. 0. 0. 0.]
1742667642524651337,1742667642,511104615,imu_link,-0.0264892578125,0.096435546875,0.01605224609375,0.994873046875,[0. 0. 0. 0. 0. 0. 0. 0. 0.],-0.009765625,0.005859375,-0.056640625,[0. 0. 0. 0. 0. 0. 0. 0. 0.],-2.03125,-0.3828125,9.65234375,[0. 0. 0. 0. 0. 0. 0. 0. 0.]
1742667642547657800,1742667642,530873004,imu_link,-0.02685546875,0.0965576171875,0.0145263671875,0.994873046875,[0. 0. 0. 0. 0. 0. 0. 0. 0.],-0.009765625,0.005859375,-0.056640625,[0. 0. 0. 0. 0. 0. 0. 0. 0.],-2.18359375,-0.3828125,9.5390625,[0. 0. 0. 0. 0. 0. 0. 0. 0.]
1742667642554029300,1742667642,550692170,imu_link,-0.02685546875,0.0965576171875,0.0145263671875,0.994873046875,[0. 0. 0. 0. 0. 0. 0. 0. 0.],-0.009765625,0.005859375,-0.056640625,[0. 0. 0. 0. 0. 0. 0. 0. 0.],-2.18359375,-0.3828125,9.5390625,[0. 0. 0. 0. 0. 0. 0. 0. 0.]
1742667642591121078,1742667642,570809818,imu_link,-0.027099609375,0.09661865234375,0.0128173828125,0.994873046875,[0. 0. 0. 0. 0. 0. 0. 0. 0.],0.0,0.00390625,-0.07421875,[0. 0. 0. 0. 0. 0. 0. 0. 0.],-2.18359375,-0.4609375,9.578125,[0. 0. 0. 0. 0. 0. 0. 0. 0.]
1742667642595883059,1742667642,593735707,imu_link,-0.027099609375,0.09661865234375,0.0128173828125,0.994873046875,[0. 0. 0. 0. 0. 0. 0. 0. 0.],0.0,0.00390625,-0.07421875,[0. 0. 0. 0. 0. 0. 0. 0. 0.],-2.18359375,-0.4609375,9.578125,[0. 0. 0. 0. 0. 0. 0. 0. 0.]
1742667642622444503,1742667642,610859022,imu_link,-0.027099609375,0.09661865234375,0.0128173828125,0.994873046875,[0. 0. 0. 0. 0. 0. 0. 0. 0.],0.0,0.005859375,-0.03125,[0. 0. 0. 0. 0. 0. 0. 0. 0.],-2.0703125,-0.53515625,9.58203125,[0. 0. 0. 0. 0. 0. 0. 0. 0.]
1742667642644825429,1742667642,630736003,imu_link,-0.02734375,0.09661865234375,0.01177978515625,0.994873046875,[0. 0. 0. 0. 0. 0. 0. 0. 0.],0.0,0.005859375,-0.03125,[0. 0. 0. 0. 0. 0. 0. 0. 0.],-2.10546875,-0.49609375,9.58203125,[0. 0. 0. 0. 0. 0. 0. 0. 0.]
1742667642654194078,1742667642,650728966,imu_link,-0.02734375,0.09661865234375,0.01177978515625,0.994873046875,[0. 0. 0. 0. 0. 0. 0. 0. 0.],0.0,0.005859375,-0.03125,[0. 0. 0. 0. 0. 0. 0. 0. 0.],-2.10546875,-0.49609375,9.58203125,[0. 0. 0. 0. 0. 0. 0. 0. 0.]
1742667642691334540,1742667642,670818855,imu_link,-0.027587890625,0.09649658203125,0.01104736328125,0.994873046875,[0. 0. 0. 0. 0. 0. 0. 0. 0.],0.00390625,0.0,-0.029296875,[0. 0. 0. 0. 0. 0. 0. 0. 0.],-1.9921875,-0.57421875,9.58203125,[0. 0. 0. 0. 0. 0. 0. 0. 0.]
1742667642696165392,1742667642,693980485,imu_link,-0.027587890625,0.09649658203125,0.01104736328125,0.994873046875,[0. 0. 0. 0. 0. 0. 0. 0. 0.],0.00390625,0.0,-0.029296875,[0. 0. 0. 0. 0. 0. 0. 0. 0.],-1.9921875,-0.57421875,9.58203125,[0. 0. 0. 0. 0. 0. 0. 0. 0.]
1742667642722538855,1742667642,710903374,imu_link,-0.027587890625,0.09649658203125,0.01104736328125,0.994873046875,[0. 0. 0. 0. 0. 0. 0. 0. 0.],0.00390625,0.00390625,0.015625,[0. 0. 0. 0. 0. 0. 0. 0. 0.],-1.87890625,-0.65234375,9.58203125,[0. 0. 0. 0. 0. 0. 0. 0. 0.]
1742667642744858466,1742667642,730862300,imu_link,-0.02783203125,0.0965576171875,0.01123046875,0.994873046875,[0. 0. 0. 0. 0. 0. 0. 0. 0.],0.00390625,0.00390625,0.015625,[0. 0. 0. 0. 0. 0. 0. 0. 0.],-1.953125,-0.53515625,9.578125,[0. 0. 0. 0. 0. 0. 0. 0. 0.]
1742667642754109874,1742667642,750703077,imu_link,-0.02783203125,0.0965576171875,0.01123046875,0.994873046875,[0. 0. 0. 0. 0. 0. 0. 0. 0.],0.00390625,0.00390625,0.015625,[0. 0. 0. 0. 0. 0. 0. 0. 0.],-1.953125,-0.53515625,9.578125,[0. 0. 0. 0. 0. 0. 0. 0. 0.]
1742667642791183929,1742667642,770824652,imu_link,-0.028076171875,0.0965576171875,0.01171875,0.994873046875,[0. 0. 0. 0. 0. 0. 0. 0. 0.],0.005859375,0.001953125,0.01953125,[0. 0. 0. 0. 0. 0. 0. 0. 0.],-1.9140625,-0.49609375,9.5390625,[0. 0. 0. 0. 0. 0. 0. 0. 0.]
1742667642801116077,1742667642,797659726,imu_link,-0.028076171875,0.0965576171875,0.01171875,0.994873046875,[0. 0. 0. 0. 0. 0. 0. 0. 0.],0.005859375,0.001953125,0.01953125,[0. 0. 0. 0. 0. 0. 0. 0. 0.],-1.9921875,-0.421875,9.54296875,[0. 0. 0. 0. 0. 0. 0. 0. 0.]
1742667642818082652,1742667642,810860355,imu_link,-0.028076171875,0.0965576171875,0.01171875,0.994873046875,[0. 0. 0. 0. 0. 0. 0. 0. 0.],0.001953125,-0.001953125,0.037109375,[0. 0. 0. 0. 0. 0. 0. 0. 0.],-1.9921875,-0.421875,9.54296875,[0. 0. 0. 0. 0. 0. 0. 0. 0.]
1742667642845277096,1742667642,830978077,imu_link,-0.0281982421875,0.09661865234375,0.0125732421875,0.994873046875,[0. 0. 0. 0. 0. 0. 0. 0. 0.],0.001953125,-0.001953125,0.037109375,[0. 0. 0. 0. 0. 0. 0. 0. 0.],-2.10546875,-0.34375,9.609375,[0. 0. 0. 0. 0. 0. 0. 0. 0.]
1742667642854139170,1742667642,850750985,imu_link,-0.0281982421875,0.09661865234375,0.0125732421875,0.994873046875,[0. 0. 0. 0. 0. 0. 0. 0. 0.],0.001953125,-0.001953125,0.037109375,[0. 0. 0. 0. 0. 0. 0. 0. 0.],-2.10546875,-0.34375,9.609375,[0. 0. 0. 0. 0. 0. 0. 0. 0.]
1742667642893449114,1742667642,870815577,imu_link,-0.028076171875,0.09710693359375,0.01361083984375,0.99481201171875,[0. 0. 0. 0. 0. 0. 0. 0. 0.],-0.00390625,0.001953125,0.041015625,[0. 0. 0. 0. 0. 0. 0. 0. 0.],-2.14453125,-0.3828125,9.61328125,[0. 0. 0. 0. 0. 0. 0. 0. 0.]
1742667642897425300,1742667642,895616114,imu_link,-0.028076171875,0.09710693359375,0.01361083984375,0.99481201171875,[0. 0. 0. 0. 0. 0. 0. 0. 0.],-0.00390625,0.001953125,0.041015625,[0. 0. 0. 0. 0. 0. 0. 0. 0.],-2.03125,-0.49609375,9.5390625,[0. 0. 0. 0. 0. 0. 0. 0. 0.]
1742667642917499337,1742667642,910827485,imu_link,-0.028076171875,0.09710693359375,0.01361083984375,0.99481201171875,[0. 0. 0. 0. 0. 0. 0. 0. 0.],-0.0078125,0.00390625,0.056640625,[0. 0. 0. 0. 0. 0. 0. 0. 0.],-2.03125,-0.49609375,9.5390625,[0. 0. 0. 0. 0. 0. 0. 0. 0.]
1742667642945333503,1742667642,930993855,imu_link,-0.0279541015625,0.09765625,0.0150146484375,0.99468994140625,[0. 0. 0. 0. 0. 0. 0. 0. 0.],-0.0078125,0.00390625,0.056640625,[0. 0. 0. 0. 0. 0. 0. 0. 0.],-2.03125,-0.49609375,9.5390625,[0. 0. 0. 0. 0. 0. 0. 0. 0.]
1742667642961785633,1742667642,950726929,imu_link,-0.0279541015625,0.09765625,0.0150146484375,0.99468994140625,[0. 0. 0. 0. 0. 0. 0. 0. 0.],-0.0078125,0.00390625,0.056640625,[0. 0. 0. 0. 0. 0. 0. 0. 0.],-2.0703125,-0.421875,9.61328125,[0. 0. 0. 0. 0. 0. 0. 0. 0.]
1742667642974359929,1742667642,970788392,imu_link,-0.0279541015625,0.09765625,0.0150146484375,0.99468994140625,[0. 0. 0. 0. 0. 0. 0. 0. 0.],-0.0078125,0.00390625,0.064453125,[0. 0. 0. 0. 0. 0. 0. 0. 0.],-2.0703125,-0.421875,9.61328125,[0. 0. 0. 0. 0. 0. 0. 0. 0.]
1742667643004807966,1742667642,990759614,imu_link,-0.0277099609375,0.09814453125,0.01666259765625,0.99462890625,[0. 0. 0. 0. 0. 0. 0. 0. 0.],-0.0078125,0.00390625,0.064453125,[0. 0. 0. 0. 0. 0. 0. 0. 0.],-2.03125,-0.49609375,9.578125,[0. 0. 0. 0. 0. 0. 0. 0. 0.]
1742667643023809003,1742667643,10983207,imu_link,-0.0277099609375,0.09814453125,0.01666259765625,0.99462890625,[0. 0. 0. 0. 0. 0. 0. 0. 0.],-0.005859375,0.001953125,0.078125,[0. 0. 0. 0. 0. 0. 0. 0. 0.],-2.03125,-0.3828125,9.5390625,[0. 0. 0. 0. 0. 0. 0. 0. 0.]
1742667643044473744,1742667643,30780911,imu_link,-0.02752685546875,0.09869384765625,0.01861572265625,0.99456787109375,[0. 0. 0. 0. 0. 0. 0. 0. 0.],-0.005859375,0.001953125,0.078125,[0. 0. 0. 0. 0. 0. 0. 0. 0.],-2.03125,-0.3828125,9.5390625,[0. 0. 0. 0. 0. 0. 0. 0. 0.]
1742667643063875133,1742667643,50792503,imu_link,-0.02752685546875,0.09869384765625,0.01861572265625,0.99456787109375,[0. 0. 0. 0. 0. 0. 0. 0. 0.],-0.005859375,0.001953125,0.078125,[0. 0. 0. 0. 0. 0. 0. 0. 0.],-2.10546875,-0.34375,9.54296875,[0. 0. 0. 0. 0. 0. 0. 0. 0.]
1742667643074183170,1742667643,70743392,imu_link,-0.02752685546875,0.09869384765625,0.01861572265625,0.99456787109375,[0. 0. 0. 0. 0. 0. 0. 0. 0.],-0.001953125,-0.001953125,0.078125,[0. 0. 0. 0. 0. 0. 0. 0. 0.],-2.10546875,-0.34375,9.54296875,[0. 0. 0. 0. 0. 0. 0. 0. 0.]
1742667643104044725,1742667643,90747855,imu_link,-0.02728271484375,0.09912109375,0.02056884765625,0.9945068359375,[0. 0. 0. 0. 0. 0. 0. 0. 0.],-0.001953125,-0.001953125,0.078125,[0. 0. 0. 0. 0. 0. 0. 0. 0.],-2.0703125,-0.3828125,9.58203125,[0. 0. 0. 0. 0. 0. 0. 0. 0.]
1742667643121999503,1742667643,111252374,imu_link,-0.02728271484375,0.09912109375,0.02056884765625,0.9945068359375,[0. 0. 0. 0. 0. 0. 0. 0. 0.],-0.0078125,0.001953125,0.087890625,[0. 0. 0. 0. 0. 0. 0. 0. 0.],-2.10546875,-0.34375,9.58203125,[0. 0. 0. 0. 0. 0. 0. 0. 0.]
1742667643147013985,1742667643,130780966,imu_link,-0.02716064453125,0.09954833984375,0.02276611328125,0.994384765625,[0. 0. 0. 0. 0. 0. 0. 0. 0.],-0.0078125,0.001953125,0.087890625,[0. 0. 0. 0. 0. 0. 0. 0. 0.],-2.14453125,-0.34375,9.578125,[0. 0. 0. 0. 0. 0. 0. 0. 0.]
1742667643154214688,1742667643,150761911,imu_link,-0.02716064453125,0.09954833984375,0.02276611328125,0.994384765625,[0. 0. 0. 0. 0. 0. 0. 0. 0.],-0.0078125,0.001953125,0.087890625,[0. 0. 0. 0. 0. 0. 0. 0. 0.],-2.14453125,-0.34375,9.578125,[0. 0. 0. 0. 0. 0. 0. 0. 0.]
1742667643191106485,1742667643,170806059,imu_link,-0.02691650390625,0.10003662109375,0.0247802734375,0.99432373046875,[0. 0. 0. 0. 0. 0. 0. 0. 0.],-0.01171875,0.001953125,0.078125,[0. 0. 0. 0. 0. 0. 0. 0. 0.],-2.0703125,-0.3828125,9.54296875,[0. 0. 0. 0. 0. 0. 0. 0. 0.]
1742667643195533151,1742667643,193748818,imu_link,-0.02691650390625,0.10003662109375,0.0247802734375,0.99432373046875,[0. 0. 0. 0. 0. 0. 0. 0. 0.],-0.01171875,0.001953125,0.078125,[0. 0. 0. 0. 0. 0. 0. 0. 0.],-2.0703125,-0.3828125,9.54296875,[0. 0. 0. 0. 0. 0. 0. 0. 0.]
1742667643221805892,1742667643,211028892,imu_link,-0.02691650390625,0.10003662109375,0.0247802734375,0.99432373046875,[0. 0. 0. 0. 0. 0. 0. 0. 0.],-0.01171875,0.005859375,0.087890625,[0. 0. 0. 0. 0. 0. 0. 0. 0.],-2.10546875,-0.3828125,9.58203125,[0. 0. 0. 0. 0. 0. 0. 0. 0.]
1742667643246218577,1742667643,230784633,imu_link,-0.02667236328125,0.1004638671875,0.0269775390625,0.99420166015625,[0. 0. 0. 0. 0. 0. 0. 0. 0.],-0.01171875,0.005859375,0.087890625,[0. 0. 0. 0. 0. 0. 0. 0. 0.],-2.14453125,-0.34375,9.5390625,[0. 0. 0. 0. 0. 0. 0. 0. 0.]
1742667643254147466,1742667643,250713670,imu_link,-0.02667236328125,0.1004638671875,0.0269775390625,0.99420166015625,[0. 0. 0. 0. 0. 0. 0. 0. 0.],-0.01171875,0.005859375,0.087890625,[0. 0. 0. 0. 0. 0. 0. 0. 0.],-2.14453125,-0.34375,9.5390625,[0. 0. 0. 0. 0. 0. 0. 0. 0.]
1742667643290593503,1742667643,270802059,imu_link,-0.0263671875,0.100830078125,0.02911376953125,0.994140625,[0. 0. 0. 0. 0. 0. 0. 0. 0.],-0.0078125,-0.00390625,0.0859375,[0. 0. 0. 0. 0. 0. 0. 0. 0.],-2.10546875,-0.3828125,9.54296875,[0. 0. 0. 0. 0. 0. 0. 0. 0.]
1742667643295729170,1742667643,293915910,imu_link,-0.0263671875,0.100830078125,0.02911376953125,0.994140625,[0. 0. 0. 0. 0. 0. 0. 0. 0.],-0.0078125,-0.00390625,0.0859375,[0. 0. 0. 0. 0. 0. 0. 0. 0.],-2.10546875,-0.3828125,9.54296875,[0. 0. 0. 0. 0. 0. 0. 0. 0.]
1742667643321661707,1742667643,310874873,imu_link,-0.0263671875,0.100830078125,0.02911376953125,0.994140625,[0. 0. 0. 0. 0. 0. 0. 0. 0.],-0.005859375,-0.005859375,0.09375,[0. 0. 0. 0. 0. 0. 0. 0. 0.],-2.0703125,-0.421875,9.61328125,[0. 0. 0. 0. 0. 0. 0. 0. 0.]
1742667643344552929,1742667643,331036448,imu_link,-0.0260009765625,0.1011962890625,0.03143310546875,0.9940185546875,[0. 0. 0. 0. 0. 0. 0. 0. 0.],-0.005859375,-0.005859375,0.09375,[0. 0. 0. 0. 0. 0. 0. 0. 0.],-2.0703125,-0.34375,9.58203125,[0. 0. 0. 0. 0. 0. 0. 0. 0.]
1742667643353597614,1742667643,350728670,imu_link,-0.0260009765625,0.1011962890625,0.03143310546875,0.9940185546875,[0. 0. 0. 0. 0. 0. 0. 0. 0.],-0.005859375,-0.005859375,0.09375,[0. 0. 0. 0. 0. 0. 0. 0. 0.],-2.0703125,-0.34375,9.58203125,[0. 0. 0. 0. 0. 0. 0. 0. 0.]
1742667643391775781,1742667643,370810688,imu_link,-0.02581787109375,0.10162353515625,0.0335693359375,0.993896484375,[0. 0. 0. 0. 0. 0. 0. 0. 0.],-0.01171875,0.0,0.083984375,[0. 0. 0. 0. 0. 0. 0. 0. 0.],-1.953125,-0.3046875,9.54296875,[0. 0. 0. 0. 0. 0. 0. 0. 0.]
1742667643401323077,1742667643,397299207,imu_link,-0.02581787109375,0.10162353515625,0.0335693359375,0.993896484375,[0. 0. 0. 0. 0. 0. 0. 0. 0.],-0.01171875,0.0,0.083984375,[0. 0. 0. 0. 0. 0. 0. 0. 0.],-1.76171875,-0.34375,9.58203125,[0. 0. 0. 0. 0. 0. 0. 0. 0.]
1742667643416651318,1742667643,410773836,imu_link,-0.02581787109375,0.10162353515625,0.0335693359375,0.993896484375,[0. 0. 0. 0. 0. 0. 0. 0. 0.],-0.0078125,0.00390625,0.0859375,[0. 0. 0. 0. 0. 0. 0. 0. 0.],-1.76171875,-0.34375,9.58203125,[0. 0. 0. 0. 0. 0. 0. 0. 0.]
1742667643443862096,1742667643,430956077,imu_link,-0.02557373046875,0.10198974609375,0.0357666015625,0.99383544921875,[0. 0. 0. 0. 0. 0. 0. 0. 0.],-0.0078125,0.00390625,0.0859375,[0. 0. 0. 0. 0. 0. 0. 0. 0.],-1.83984375,-0.3046875,9.5390625,[0. 0. 0. 0. 0. 0. 0. 0. 0.]
1742667643453808281,1742667643,450826373,imu_link,-0.02557373046875,0.10198974609375,0.0357666015625,0.99383544921875,[0. 0. 0. 0. 0. 0. 0. 0. 0.],-0.0078125,0.00390625,0.0859375,[0. 0. 0. 0. 0. 0. 0. 0. 0.],-1.83984375,-0.3046875,9.5390625,[0. 0. 0. 0. 0. 0. 0. 0. 0.]
1742667643486705059,1742667643,470797170,imu_link,-0.025390625,0.10223388671875,0.03765869140625,0.99371337890625,[0. 0. 0. 0. 0. 0. 0. 0. 0.],-0.005859375,0.0,0.072265625,[0. 0. 0. 0. 0. 0. 0. 0. 0.],-1.9921875,-0.26953125,9.5390625,[0. 0. 0. 0. 0. 0. 0. 0. 0.]
1742667643495983003,1742667643,494241336,imu_link,-0.025390625,0.10223388671875,0.03765869140625,0.99371337890625,[0. 0. 0. 0. 0. 0. 0. 0. 0.],-0.005859375,0.0,0.072265625,[0. 0. 0. 0. 0. 0. 0. 0. 0.],-2.0703125,-0.23046875,9.61328125,[0. 0. 0. 0. 0. 0. 0. 0. 0.]
1742667643516861096,1742667643,510833392,imu_link,-0.025390625,0.10223388671875,0.03765869140625,0.99371337890625,[0. 0. 0. 0. 0. 0. 0. 0. 0.],0.0,-0.001953125,0.048828125,[0. 0. 0. 0. 0. 0. 0. 0. 0.],-2.0703125,-0.23046875,9.61328125,[0. 0. 0. 0. 0. 0. 0. 0. 0.]
1742667643543336596,1742667643,530781040,imu_link,-0.02520751953125,0.102294921875,0.0390625,0.99365234375,[0. 0. 0. 0. 0. 0. 0. 0. 0.],0.0,-0.001953125,0.048828125,[0. 0. 0. 0. 0. 0. 0. 0. 0.],-2.03125,-0.15234375,9.5390625,[0. 0. 0. 0. 0. 0. 0. 0. 0.]
1742667643561774096,1742667643,550868058,imu_link,-0.02520751953125,0.102294921875,0.0390625,0.99365234375,[0. 0. 0. 0. 0. 0. 0. 0. 0.],0.0,-0.001953125,0.03515625,[0. 0. 0. 0. 0. 0. 0. 0. 0.],-2.0703125,-0.11328125,9.50390625,[0. 0. 0. 0. 0. 0. 0. 0. 0.]
1742667643573559596,1742667643,570727984,imu_link,-0.02520751953125,0.102294921875,0.0390625,0.99365234375,[0. 0. 0. 0. 0. 0. 0. 0. 0.],0.0,-0.001953125,0.03515625,[0. 0. 0. 0. 0. 0. 0. 0. 0.],-2.0703125,-0.11328125,9.50390625,[0. 0. 0. 0. 0. 0. 0. 0. 0.]
1742667643604185447,1742667643,590797410,imu_link,-0.02496337890625,0.10235595703125,0.0400390625,0.99365234375,[0. 0. 0. 0. 0. 0. 0. 0. 0.],0.0,-0.001953125,0.03515625,[0. 0. 0. 0. 0. 0. 0. 0. 0.],-2.03125,-0.078125,9.578125,[0. 0. 0. 0. 0. 0. 0. 0. 0.]
1742667643621717873,1742667643,610744781,imu_link,-0.02496337890625,0.10235595703125,0.0400390625,0.99365234375,[0. 0. 0. 0. 0. 0. 0. 0. 0.],-0.00390625,-0.001953125,-0.001953125,[0. 0. 0. 0. 0. 0. 0. 0. 0.],-2.03125,-0.078125,9.61328125,[0. 0. 0. 0. 0. 0. 0. 0. 0.]
1742667643643139781,1742667643,630745725,imu_link,-0.02471923828125,0.10235595703125,0.0401611328125,0.99365234375,[0. 0. 0. 0. 0. 0. 0. 0. 0.],-0.00390625,-0.001953125,-0.001953125,[0. 0. 0. 0. 0. 0. 0. 0. 0.],-2.03125,-0.078125,9.61328125,[0. 0. 0. 0. 0. 0. 0. 0. 0.]
1742667643661944355,1742667643,650887058,imu_link,-0.02471923828125,0.10235595703125,0.0401611328125,0.99365234375,[0. 0. 0. 0. 0. 0. 0. 0. 0.],0.0,0.0,-0.048828125,[0. 0. 0. 0. 0. 0. 0. 0. 0.],-1.953125,0.0,9.5390625,[0. 0. 0. 0. 0. 0. 0. 0. 0.]
1742667643673530170,1742667643,670726484,imu_link,-0.02471923828125,0.10235595703125,0.0401611328125,0.99365234375,[0. 0. 0. 0. 0. 0. 0. 0. 0.],0.0,0.0,-0.048828125,[0. 0. 0. 0. 0. 0. 0. 0. 0.],-1.953125,0.0,9.5390625,[0. 0. 0. 0. 0. 0. 0. 0. 0.]
1742667643703807910,1742667643,690786244,imu_link,-0.02447509765625,0.10235595703125,0.03912353515625,0.99365234375,[0. 0. 0. 0. 0. 0. 0. 0. 0.],0.0,0.0,-0.048828125,[0. 0. 0. 0. 0. 0. 0. 0. 0.],-1.9921875,0.0390625,9.61328125,[0. 0. 0. 0. 0. 0. 0. 0. 0.]
1742667643721479799,1742667643,710753855,imu_link,-0.02447509765625,0.10235595703125,0.03912353515625,0.99365234375,[0. 0. 0. 0. 0. 0. 0. 0. 0.],0.017578125,-0.00390625,-0.099609375,[0. 0. 0. 0. 0. 0. 0. 0. 0.],-2.03125,0.0390625,9.5390625,[0. 0. 0. 0. 0. 0. 0. 0. 0.]
1742667643746300799,1742667643,730780169,imu_link,-0.02325439453125,0.102294921875,0.036865234375,0.9937744140625,[0. 0. 0. 0. 0. 0. 0. 0. 0.],0.017578125,-0.00390625,-0.099609375,[0. 0. 0. 0. 0. 0. 0. 0. 0.],-1.9921875,0.15234375,9.4609375,[0. 0. 0. 0. 0. 0. 0. 0. 0.]
1742667643753268725,1742667643,750963744,imu_link,-0.02325439453125,0.102294921875,0.036865234375,0.9937744140625,[0. 0. 0. 0. 0. 0. 0. 0. 0.],0.017578125,-0.00390625,-0.099609375,[0. 0. 0. 0. 0. 0. 0. 0. 0.],-1.9921875,0.15234375,9.4609375,[0. 0. 0. 0. 0. 0. 0. 0. 0.]
1742667643788130262,1742667643,770803336,imu_link,-0.02215576171875,0.1021728515625,0.0330810546875,0.99395751953125,[0. 0. 0. 0. 0. 0. 0. 0. 0.],0.017578125,-0.00390625,-0.162109375,[0. 0. 0. 0. 0. 0. 0. 0. 0.],-2.03125,0.11328125,9.65234375,[0. 0. 0. 0. 0. 0. 0. 0. 0.]
1742667643793667318,1742667643,790779669,imu_link,-0.02215576171875,0.1021728515625,0.0330810546875,0.99395751953125,[0. 0. 0. 0. 0. 0. 0. 0. 0.],0.017578125,-0.00390625,-0.162109375,[0. 0. 0. 0. 0. 0. 0. 0. 0.],-2.03125,0.11328125,9.65234375,[0. 0. 0. 0. 0. 0. 0. 0. 0.]
1742667643820874855,1742667643,810820206,imu_link,-0.02215576171875,0.1021728515625,0.0330810546875,0.99395751953125,[0. 0. 0. 0. 0. 0. 0. 0. 0.],0.01953125,0.005859375,-0.189453125,[0. 0. 0. 0. 0. 0. 0. 0. 0.],-2.14453125,-0.078125,9.5390625,[0. 0. 0. 0. 0. 0. 0. 0. 0.]
1742667643845955281,1742667643,830927836,imu_link,-0.02215576171875,0.10211181640625,0.02838134765625,0.994140625,[0. 0. 0. 0. 0. 0. 0. 0. 0.],0.01953125,0.005859375,-0.189453125,[0. 0. 0. 0. 0. 0. 0. 0. 0.],-2.18359375,-0.23046875,9.6484375,[0. 0. 0. 0. 0. 0. 0. 0. 0.]
1742667643853365392,1742667643,851121873,imu_link,-0.02215576171875,0.10211181640625,0.02838134765625,0.994140625,[0. 0. 0. 0. 0. 0. 0. 0. 0.],0.01953125,0.005859375,-0.189453125,[0. 0. 0. 0. 0. 0. 0. 0. 0.],-2.18359375,-0.23046875,9.6484375,[0. 0. 0. 0. 0. 0. 0. 0. 0.]
1742667643887811466,1742667643,870800910,imu_link,-0.022216796875,0.10198974609375,0.02294921875,0.9942626953125,[0. 0. 0. 0. 0. 0. 0. 0. 0.],0.017578125,-0.001953125,-0.22265625,[0. 0. 0. 0. 0. 0. 0. 0. 0.],-2.18359375,-0.3046875,9.46484375,[0. 0. 0. 0. 0. 0. 0. 0. 0.]
1742667643892866855,1742667643,890731003,imu_link,-0.022216796875,0.10198974609375,0.02294921875,0.9942626953125,[0. 0. 0. 0. 0. 0. 0. 0. 0.],0.017578125,-0.001953125,-0.22265625,[0. 0. 0. 0. 0. 0. 0. 0. 0.],-2.18359375,-0.3046875,9.46484375,[0. 0. 0. 0. 0. 0. 0. 0. 0.]
1742667643921561373,1742667643,910807280,imu_link,-0.022216796875,0.10198974609375,0.02294921875,0.9942626953125,[0. 0. 0. 0. 0. 0. 0. 0. 0.],0.013671875,-0.00390625,-0.224609375,[0. 0. 0. 0. 0. 0. 0. 0. 0.],-2.0703125,-0.3828125,9.58203125,[0. 0. 0. 0. 0. 0. 0. 0. 0.]
1742667643943492040,1742667643,930741355,imu_link,-0.02203369140625,0.10186767578125,0.017333984375,0.994384765625,[0. 0. 0. 0. 0. 0. 0. 0. 0.],0.013671875,-0.00390625,-0.224609375,[0. 0. 0. 0. 0. 0. 0. 0. 0.],-1.9921875,-0.4609375,9.578125,[0. 0. 0. 0. 0. 0. 0. 0. 0.]
1742667643953397577,1742667643,951104910,imu_link,-0.02203369140625,0.10186767578125,0.017333984375,0.994384765625,[0. 0. 0. 0. 0. 0. 0. 0. 0.],0.013671875,-0.00390625,-0.224609375,[0. 0. 0. 0. 0. 0. 0. 0. 0.],-1.9921875,-0.4609375,9.578125,[0. 0. 0. 0. 0. 0. 0. 0. 0.]
1742667643988509503,1742667643,970872836,imu_link,-0.02178955078125,0.101806640625,0.01214599609375,0.9945068359375,[0. 0. 0. 0. 0. 0. 0. 0. 0.],0.009765625,0.001953125,-0.212890625,[0. 0. 0. 0. 0. 0. 0. 0. 0.],-1.9921875,-0.49609375,9.578125,[0. 0. 0. 0. 0. 0. 0. 0. 0.]
1742667643992889392,1742667643,991161817,imu_link,-0.02178955078125,0.101806640625,0.01214599609375,0.9945068359375,[0. 0. 0. 0. 0. 0. 0. 0. 0.],0.009765625,0.001953125,-0.212890625,[0. 0. 0. 0. 0. 0. 0. 0. 0.],-1.9921875,-0.49609375,9.578125,[0. 0. 0. 0. 0. 0. 0. 0. 0.]
1742667644017960540,1742667644,10977040,imu_link,-0.02178955078125,0.101806640625,0.01214599609375,0.9945068359375,[0. 0. 0. 0. 0. 0. 0. 0. 0.],0.005859375,-0.001953125,-0.2265625,[0. 0. 0. 0. 0. 0. 0. 0. 0.],-2.03125,-0.3828125,9.5390625,[0. 0. 0. 0. 0. 0. 0. 0. 0.]
1742667644044652540,1742667644,30844762,imu_link,-0.0216064453125,0.1016845703125,0.00665283203125,0.99456787109375,[0. 0. 0. 0. 0. 0. 0. 0. 0.],0.005859375,-0.001953125,-0.2265625,[0. 0. 0. 0. 0. 0. 0. 0. 0.],-1.9140625,-0.3828125,9.5,[0. 0. 0. 0. 0. 0. 0. 0. 0.]
1742667644053477392,1742667644,51289095,imu_link,-0.0216064453125,0.1016845703125,0.00665283203125,0.99456787109375,[0. 0. 0. 0. 0. 0. 0. 0. 0.],0.005859375,-0.001953125,-0.2265625,[0. 0. 0. 0. 0. 0. 0. 0. 0.],-1.9140625,-0.3828125,9.5,[0. 0. 0. 0. 0. 0. 0. 0. 0.]
1742667644072974521,1742667644,70723595,imu_link,-0.0216064453125,0.1016845703125,0.00665283203125,0.99456787109375,[0. 0. 0. 0. 0. 0. 0. 0. 0.],0.009765625,-0.00390625,-0.21484375,[0. 0. 0. 0. 0. 0. 0. 0. 0.],-1.953125,-0.34375,9.61328125,[0. 0. 0. 0. 0. 0. 0. 0. 0.]
1742667644103462595,1742667644,90806669,imu_link,-0.02142333984375,0.1015625,0.00140380859375,0.99462890625,[0. 0. 0. 0. 0. 0. 0. 0. 0.],0.009765625,-0.00390625,-0.21484375,[0. 0. 0. 0. 0. 0. 0. 0. 0.],-2.03125,-0.34375,9.578125,[0. 0. 0. 0. 0. 0. 0. 0. 0.]
1742667644112914040,1742667644,110692040,imu_link,-0.02142333984375,0.1015625,0.00140380859375,0.99462890625,[0. 0. 0. 0. 0. 0. 0. 0. 0.],0.021484375,-0.00390625,-0.23046875,[0. 0. 0. 0. 0. 0. 0. 0. 0.],-2.03125,-0.34375,9.578125,[0. 0. 0. 0. 0. 0. 0. 0. 0.]
1742667644143377966,1742667644,130826651,imu_link,-0.0211181640625,0.1014404296875,-0.0042724609375,0.99462890625,[0. 0. 0. 0. 0. 0. 0. 0. 0.],0.021484375,-0.00390625,-0.23046875,[0. 0. 0. 0. 0. 0. 0. 0. 0.],-2.03125,-0.3828125,9.578125,[0. 0. 0. 0. 0. 0. 0. 0. 0.]
1742667644162342058,1742667644,151007910,imu_link,-0.0211181640625,0.1014404296875,-0.0042724609375,0.99462890625,[0. 0. 0. 0. 0. 0. 0. 0. 0.],0.01953125,-0.001953125,-0.234375,[0. 0. 0. 0. 0. 0. 0. 0. 0.],-1.953125,-0.3046875,9.54296875,[0. 0. 0. 0. 0. 0. 0. 0. 0.]
1742667644172984225,1742667644,170754003,imu_link,-0.0211181640625,0.1014404296875,-0.0042724609375,0.99462890625,[0. 0. 0. 0. 0. 0. 0. 0. 0.],0.01953125,-0.001953125,-0.234375,[0. 0. 0. 0. 0. 0. 0. 0. 0.],-1.953125,-0.3046875,9.54296875,[0. 0. 0. 0. 0. 0. 0. 0. 0.]
1742667644207851151,1742667644,190805725,imu_link,-0.02081298828125,0.101318359375,-0.01007080078125,0.99456787109375,[0. 0. 0. 0. 0. 0. 0. 0. 0.],0.01953125,-0.001953125,-0.234375,[0. 0. 0. 0. 0. 0. 0. 0. 0.],-1.953125,-0.421875,9.609375,[0. 0. 0. 0. 0. 0. 0. 0. 0.]
1742667644212961577,1742667644,210795521,imu_link,-0.02081298828125,0.101318359375,-0.01007080078125,0.99456787109375,[0. 0. 0. 0. 0. 0. 0. 0. 0.],0.017578125,-0.005859375,-0.228515625,[0. 0. 0. 0. 0. 0. 0. 0. 0.],-1.953125,-0.421875,9.609375,[0. 0. 0. 0. 0. 0. 0. 0. 0.]
1742667644243323151,1742667644,231069058,imu_link,-0.02056884765625,0.10113525390625,-0.0157470703125,0.9945068359375,[0. 0. 0. 0. 0. 0. 0. 0. 0.],0.017578125,-0.005859375,-0.228515625,[0. 0. 0. 0. 0. 0. 0. 0. 0.],-1.9140625,-0.421875,9.58203125,[0. 0. 0. 0. 0. 0. 0. 0. 0.]
1742667644262077299,1742667644,250911188,imu_link,-0.02056884765625,0.10113525390625,-0.0157470703125,0.9945068359375,[0. 0. 0. 0. 0. 0. 0. 0. 0.],0.017578125,0.0,-0.23828125,[0. 0. 0. 0. 0. 0. 0. 0. 0.],-1.953125,-0.3828125,9.578125,[0. 0. 0. 0. 0. 0. 0. 0. 0.]
1742667644272937391,1742667644,270726040,imu_link,-0.02056884765625,0.10113525390625,-0.0157470703125,0.9945068359375,[0. 0. 0. 0. 0. 0. 0. 0. 0.],0.017578125,0.0,-0.23828125,[0. 0. 0. 0. 0. 0. 0. 0. 0.],-1.953125,-0.3828125,9.578125,[0. 0. 0. 0. 0. 0. 0. 0. 0.]
1742667644303987021,1742667644,291029614,imu_link,-0.02032470703125,0.1009521484375,-0.02166748046875,0.99444580078125,[0. 0. 0. 0. 0. 0. 0. 0. 0.],0.017578125,0.0,-0.23828125,[0. 0. 0. 0. 0. 0. 0. 0. 0.],-1.9140625,-0.3828125,9.578125,[0. 0. 0. 0. 0. 0. 0. 0. 0.]
1742667644318667502,1742667644,315121188,imu_link,-0.02032470703125,0.1009521484375,-0.02166748046875,0.99444580078125,[0. 0. 0. 0. 0. 0. 0. 0. 0.],0.005859375,-0.001953125,-0.232421875,[0. 0. 0. 0. 0. 0. 0. 0. 0.],-1.953125,-0.34375,9.578125,[0. 0. 0. 0. 0. 0. 0. 0. 0.]
1742667644348205151,1742667644,330826243,imu_link,-0.02032470703125,0.100830078125,-0.0274658203125,0.99432373046875,[0. 0. 0. 0. 0. 0. 0. 0. 0.],0.005859375,-0.001953125,-0.232421875,[0. 0. 0. 0. 0. 0. 0. 0. 0.],-1.9921875,-0.3828125,9.578125,[0. 0. 0. 0. 0. 0. 0. 0. 0.]
1742667644352765465,1742667644,350889447,imu_link,-0.02032470703125,0.100830078125,-0.0274658203125,0.99432373046875,[0. 0. 0. 0. 0. 0. 0. 0. 0.],0.005859375,-0.001953125,-0.232421875,[0. 0. 0. 0. 0. 0. 0. 0. 0.],-1.9921875,-0.3828125,9.578125,[0. 0. 0. 0. 0. 0. 0. 0. 0.]
1742667644386977077,1742667644,370776669,imu_link,-0.02044677734375,0.10076904296875,-0.0333251953125,0.994140625,[0. 0. 0. 0. 0. 0. 0. 0. 0.],0.013671875,0.001953125,-0.240234375,[0. 0. 0. 0. 0. 0. 0. 0. 0.],-1.9921875,-0.3828125,9.578125,[0. 0. 0. 0. 0. 0. 0. 0. 0.]
1742667644393196725,1742667644,390740039,imu_link,-0.02044677734375,0.10076904296875,-0.0333251953125,0.994140625,[0. 0. 0. 0. 0. 0. 0. 0. 0.],0.013671875,0.001953125,-0.240234375,[0. 0. 0. 0. 0. 0. 0. 0. 0.],-1.9921875,-0.3828125,9.578125,[0. 0. 0. 0. 0. 0. 0. 0. 0.]
1742667644421803410,1742667644,410804669,imu_link,-0.02044677734375,0.10076904296875,-0.0333251953125,0.994140625,[0. 0. 0. 0. 0. 0. 0. 0. 0.],0.015625,0.0,-0.244140625,[0. 0. 0. 0. 0. 0. 0. 0. 0.],-1.953125,-0.34375,9.5,[0. 0. 0. 0. 0. 0. 0. 0. 0.]
1742667644448067095,1742667644,430754984,imu_link,-0.02056884765625,0.10064697265625,-0.0394287109375,0.993896484375,[0. 0. 0. 0. 0. 0. 0. 0. 0.],0.015625,0.0,-0.244140625,[0. 0. 0. 0. 0. 0. 0. 0. 0.],-1.9140625,-0.23046875,9.58203125,[0. 0. 0. 0. 0. 0. 0. 0. 0.]
1742667644452614151,1742667644,450663447,imu_link,-0.02056884765625,0.10064697265625,-0.0394287109375,0.993896484375,[0. 0. 0. 0. 0. 0. 0. 0. 0.],0.015625,0.0,-0.244140625,[0. 0. 0. 0. 0. 0. 0. 0. 0.],-1.9140625,-0.23046875,9.58203125,[0. 0. 0. 0. 0. 0. 0. 0. 0.]
1742667644488069336,1742667644,470799836,imu_link,-0.02081298828125,0.10052490234375,-0.04571533203125,0.99365234375,[0. 0. 0. 0. 0. 0. 0. 0. 0.],0.0078125,-0.00390625,-0.251953125,[0. 0. 0. 0. 0. 0. 0. 0. 0.],-1.953125,-0.34375,9.65234375,[0. 0. 0. 0. 0. 0. 0. 0. 0.]
1742667644493018762,1742667644,490877558,imu_link,-0.02081298828125,0.10052490234375,-0.04571533203125,0.99365234375,[0. 0. 0. 0. 0. 0. 0. 0. 0.],0.0078125,-0.00390625,-0.251953125,[0. 0. 0. 0. 0. 0. 0. 0. 0.],-1.953125,-0.34375,9.65234375,[0. 0. 0. 0. 0. 0. 0. 0. 0.]
1742667644521581150,1742667644,510813502,imu_link,-0.02081298828125,0.10052490234375,-0.04571533203125,0.99365234375,[0. 0. 0. 0. 0. 0. 0. 0. 0.],0.01953125,-0.00390625,-0.251953125,[0. 0. 0. 0. 0. 0. 0. 0. 0.],-2.0703125,-0.49609375,9.50390625,[0. 0. 0. 0. 0. 0. 0. 0. 0.]
1742667644543698873,1742667644,530731595,imu_link,-0.02081298828125,0.10040283203125,-0.052001953125,0.99334716796875,[0. 0. 0. 0. 0. 0. 0. 0. 0.],0.01953125,-0.00390625,-0.251953125,[0. 0. 0. 0. 0. 0. 0. 0. 0.],-2.03125,-0.421875,9.54296875,[0. 0. 0. 0. 0. 0. 0. 0. 0.]
