timestamp,header.stamp.sec,header.stamp.nanosec,header.frame_id,orientation.x,orientation.y,orientation.z,orientation.w,orientation_covariance,angular_velocity.x,angular_velocity.y,angular_velocity.z,angular_velocity_covariance,linear_acceleration.x,linear_acceleration.y,linear_acceleration.z,linear_acceleration_covariance
1742665959317785803,1742665959,302810840,imu_link,-0.01544189453125,0.09820556640625,-0.00115966796875,0.99505615234375,[0. 0. 0. 0. 0. 0. 0. 0. 0.],0.0,-0.001953125,0.0,[0. 0. 0. 0. 0. 0. 0. 0. 0.],-1.9140625,-0.3046875,9.58203125,[0. 0. 0. 0. 0. 0. 0. 0. 0.]
1742665959326796525,1742665959,323008766,imu_link,-0.01544189453125,0.09820556640625,-0.00115966796875,0.99505615234375,[0. 0. 0. 0. 0. 0. 0. 0. 0.],0.0,-0.001953125,0.0,[0. 0. 0. 0. 0. 0. 0. 0. 0.],-1.9140625,-0.3046875,9.58203125,[0. 0. 0. 0. 0. 0. 0. 0. 0.]
1742665959355991173,1742665959,341850173,imu_link,-0.01544189453125,0.09820556640625,-0.0010986328125,0.99505615234375,[0. 0. 0. 0. 0. 0. 0. 0. 0.],0.0,-0.001953125,0.0,[0. 0. 0. 0. 0. 0. 0. 0. 0.],-1.9140625,-0.3046875,9.58203125,[0. 0. 0. 0. 0. 0. 0. 0. 0.]
1742665959372899859,1742665959,361742062,imu_link,-0.01544189453125,0.09820556640625,-0.0010986328125,0.99505615234375,[0. 0. 0. 0. 0. 0. 0. 0. 0.],-0.001953125,0.001953125,-0.001953125,[0. 0. 0. 0. 0. 0. 0. 0. 0.],-1.9140625,-0.3046875,9.58203125,[0. 0. 0. 0. 0. 0. 0. 0. 0.]
1742665959396101673,1742665959,381754062,imu_link,-0.01544189453125,0.09820556640625,-0.0010986328125,0.99505615234375,[0. 0. 0. 0. 0. 0. 0. 0. 0.],-0.001953125,0.001953125,-0.001953125,[0. 0. 0. 0. 0. 0. 0. 0. 0.],-1.9140625,-0.3046875,9.58203125,[0. 0. 0. 0. 0. 0. 0. 0. 0.]
1742665959405575044,1742665959,402249766,imu_link,-0.01544189453125,0.09820556640625,-0.0010986328125,0.99505615234375,[0. 0. 0. 0. 0. 0. 0. 0. 0.],-0.001953125,0.001953125,-0.001953125,[0. 0. 0. 0. 0. 0. 0. 0. 0.],-1.9140625,-0.3046875,9.58203125,[0. 0. 0. 0. 0. 0. 0. 0. 0.]
1742665959428346729,1742665959,421791451,imu_link,-0.01544189453125,0.09820556640625,-0.0010986328125,0.99505615234375,[0. 0. 0. 0. 0. 0. 0. 0. 0.],0.0,-0.001953125,0.0,[0. 0. 0. 0. 0. 0. 0. 0. 0.],-1.9140625,-0.3046875,9.58203125,[0. 0. 0. 0. 0. 0. 0. 0. 0.]
1742665959456263766,1742665959,441767803,imu_link,-0.01544189453125,0.09820556640625,-0.0010986328125,0.99505615234375,[0. 0. 0. 0. 0. 0. 0. 0. 0.],0.0,-0.001953125,0.0,[0. 0. 0. 0. 0. 0. 0. 0. 0.],-1.9140625,-0.3046875,9.58203125,[0. 0. 0. 0. 0. 0. 0. 0. 0.]
1742665959473702340,1742665959,461728322,imu_link,-0.01544189453125,0.09820556640625,-0.0010986328125,0.99505615234375,[0. 0. 0. 0. 0. 0. 0. 0. 0.],-0.001953125,0.001953125,0.0,[0. 0. 0. 0. 0. 0. 0. 0. 0.],-1.9140625,-0.3046875,9.58203125,[0. 0. 0. 0. 0. 0. 0. 0. 0.]
1742665959498643210,1742665959,481723303,imu_link,-0.01544189453125,0.09814453125,-0.0010986328125,0.99505615234375,[0. 0. 0. 0. 0. 0. 0. 0. 0.],-0.001953125,0.001953125,0.0,[0. 0. 0. 0. 0. 0. 0. 0. 0.],-1.9140625,-0.3046875,9.58203125,[0. 0. 0. 0. 0. 0. 0. 0. 0.]
1742665959505121710,1742665959,501730284,imu_link,-0.01544189453125,0.09814453125,-0.0010986328125,0.99505615234375,[0. 0. 0. 0. 0. 0. 0. 0. 0.],-0.001953125,0.001953125,0.0,[0. 0. 0. 0. 0. 0. 0. 0. 0.],-1.9140625,-0.3046875,9.58203125,[0. 0. 0. 0. 0. 0. 0. 0. 0.]
1742665959541080747,1742665959,521768284,imu_link,-0.01544189453125,0.09820556640625,-0.0010986328125,0.99505615234375,[0. 0. 0. 0. 0. 0. 0. 0. 0.],-0.001953125,0.0,0.0,[0. 0. 0. 0. 0. 0. 0. 0. 0.],-1.9140625,-0.3046875,9.58203125,[0. 0. 0. 0. 0. 0. 0. 0. 0.]
1742665959547151155,1742665959,543580284,imu_link,-0.01544189453125,0.09820556640625,-0.0010986328125,0.99505615234375,[0. 0. 0. 0. 0. 0. 0. 0. 0.],-0.001953125,0.0,0.0,[0. 0. 0. 0. 0. 0. 0. 0. 0.],-1.9140625,-0.3046875,9.58203125,[0. 0. 0. 0. 0. 0. 0. 0. 0.]
1742665959573878821,1742665959,561962044,imu_link,-0.01544189453125,0.09820556640625,-0.0010986328125,0.99505615234375,[0. 0. 0. 0. 0. 0. 0. 0. 0.],0.0,-0.001953125,0.0,[0. 0. 0. 0. 0. 0. 0. 0. 0.],-1.9140625,-0.3046875,9.58203125,[0. 0. 0. 0. 0. 0. 0. 0. 0.]
1742665959595886618,1742665959,581738544,imu_link,-0.01544189453125,0.09820556640625,-0.00115966796875,0.99505615234375,[0. 0. 0. 0. 0. 0. 0. 0. 0.],0.0,-0.001953125,0.0,[0. 0. 0. 0. 0. 0. 0. 0. 0.],-1.9140625,-0.3046875,9.58203125,[0. 0. 0. 0. 0. 0. 0. 0. 0.]
1742665959605343229,1742665959,601815877,imu_link,-0.01544189453125,0.09820556640625,-0.00115966796875,0.99505615234375,[0. 0. 0. 0. 0. 0. 0. 0. 0.],0.0,-0.001953125,0.0,[0. 0. 0. 0. 0. 0. 0. 0. 0.],-1.9140625,-0.3046875,9.58203125,[0. 0. 0. 0. 0. 0. 0. 0. 0.]
1742665959642930377,1742665959,621791692,imu_link,-0.0155029296875,0.09820556640625,-0.00115966796875,0.99505615234375,[0. 0. 0. 0. 0. 0. 0. 0. 0.],-0.00390625,-0.001953125,-0.001953125,[0. 0. 0. 0. 0. 0. 0. 0. 0.],-1.9140625,-0.3046875,9.58203125,[0. 0. 0. 0. 0. 0. 0. 0. 0.]
1742665959647603340,1742665959,645460081,imu_link,-0.0155029296875,0.09820556640625,-0.00115966796875,0.99505615234375,[0. 0. 0. 0. 0. 0. 0. 0. 0.],-0.00390625,-0.001953125,-0.001953125,[0. 0. 0. 0. 0. 0. 0. 0. 0.],-1.9140625,-0.3046875,9.58203125,[0. 0. 0. 0. 0. 0. 0. 0. 0.]
1742665959673850729,1742665959,661742877,imu_link,-0.0155029296875,0.09820556640625,-0.00115966796875,0.99505615234375,[0. 0. 0. 0. 0. 0. 0. 0. 0.],0.0,0.0,-0.001953125,[0. 0. 0. 0. 0. 0. 0. 0. 0.],-1.9140625,-0.3046875,9.58203125,[0. 0. 0. 0. 0. 0. 0. 0. 0.]
1742665959696121229,1742665959,681698192,imu_link,-0.0155029296875,0.09820556640625,-0.00115966796875,0.99505615234375,[0. 0. 0. 0. 0. 0. 0. 0. 0.],0.0,0.0,-0.001953125,[0. 0. 0. 0. 0. 0. 0. 0. 0.],-1.9140625,-0.3046875,9.58203125,[0. 0. 0. 0. 0. 0. 0. 0. 0.]
1742665959705381618,1742665959,701733673,imu_link,-0.0155029296875,0.09820556640625,-0.00115966796875,0.99505615234375,[0. 0. 0. 0. 0. 0. 0. 0. 0.],0.0,0.0,-0.001953125,[0. 0. 0. 0. 0. 0. 0. 0. 0.],-1.9140625,-0.3046875,9.58203125,[0. 0. 0. 0. 0. 0. 0. 0. 0.]
1742665959742625988,1742665959,721787007,imu_link,-0.0155029296875,0.0982666015625,-0.00115966796875,0.99505615234375,[0. 0. 0. 0. 0. 0. 0. 0. 0.],-0.001953125,0.0,-0.001953125,[0. 0. 0. 0. 0. 0. 0. 0. 0.],-1.9140625,-0.3046875,9.58203125,[0. 0. 0. 0. 0. 0. 0. 0. 0.]
1742665959751315784,1742665959,748380766,imu_link,-0.0155029296875,0.0982666015625,-0.00115966796875,0.99505615234375,[0. 0. 0. 0. 0. 0. 0. 0. 0.],-0.001953125,0.0,-0.001953125,[0. 0. 0. 0. 0. 0. 0. 0. 0.],-1.9140625,-0.3046875,9.58203125,[0. 0. 0. 0. 0. 0. 0. 0. 0.]
1742665959768520358,1742665959,761737525,imu_link,-0.0155029296875,0.0982666015625,-0.00115966796875,0.99505615234375,[0. 0. 0. 0. 0. 0. 0. 0. 0.],0.0,0.0,0.0,[0. 0. 0. 0. 0. 0. 0. 0. 0.],-1.9140625,-0.3046875,9.58203125,[0. 0. 0. 0. 0. 0. 0. 0. 0.]
1742665959795915247,1742665959,781788581,imu_link,-0.0155029296875,0.0982666015625,-0.00115966796875,0.99505615234375,[0. 0. 0. 0. 0. 0. 0. 0. 0.],0.0,0.0,0.0,[0. 0. 0. 0. 0. 0. 0. 0. 0.],-1.9140625,-0.3046875,9.58203125,[0. 0. 0. 0. 0. 0. 0. 0. 0.]
1742665959805044247,1742665959,801696692,imu_link,-0.0155029296875,0.0982666015625,-0.00115966796875,0.99505615234375,[0. 0. 0. 0. 0. 0. 0. 0. 0.],0.0,0.0,0.0,[0. 0. 0. 0. 0. 0. 0. 0. 0.],-1.9140625,-0.3046875,9.58203125,[0. 0. 0. 0. 0. 0. 0. 0. 0.]
1742665959846955581,1742665959,821781155,imu_link,-0.0155029296875,0.0982666015625,-0.00115966796875,0.99505615234375,[0. 0. 0. 0. 0. 0. 0. 0. 0.],0.0,0.0,0.0,[0. 0. 0. 0. 0. 0. 0. 0. 0.],-1.9140625,-0.3046875,9.58203125,[0. 0. 0. 0. 0. 0. 0. 0. 0.]
1742665959852456081,1742665959,848805673,imu_link,-0.0155029296875,0.0982666015625,-0.00115966796875,0.99505615234375,[0. 0. 0. 0. 0. 0. 0. 0. 0.],0.0,0.0,0.0,[0. 0. 0. 0. 0. 0. 0. 0. 0.],-1.9140625,-0.3046875,9.58203125,[0. 0. 0. 0. 0. 0. 0. 0. 0.]
1742665959868410969,1742665959,861804025,imu_link,-0.0155029296875,0.0982666015625,-0.00115966796875,0.99505615234375,[0. 0. 0. 0. 0. 0. 0. 0. 0.],0.0,0.0,0.0,[0. 0. 0. 0. 0. 0. 0. 0. 0.],-1.9140625,-0.3046875,9.58203125,[0. 0. 0. 0. 0. 0. 0. 0. 0.]
1742665959896350136,1742665959,881948173,imu_link,-0.0155029296875,0.0982666015625,-0.00115966796875,0.99505615234375,[0. 0. 0. 0. 0. 0. 0. 0. 0.],0.0,0.0,0.0,[0. 0. 0. 0. 0. 0. 0. 0. 0.],-1.9140625,-0.3046875,9.58203125,[0. 0. 0. 0. 0. 0. 0. 0. 0.]
1742665959912631451,1742665959,901736247,imu_link,-0.0155029296875,0.0982666015625,-0.00115966796875,0.99505615234375,[0. 0. 0. 0. 0. 0. 0. 0. 0.],0.0,0.0,0.0,[0. 0. 0. 0. 0. 0. 0. 0. 0.],-1.9140625,-0.3046875,9.58203125,[0. 0. 0. 0. 0. 0. 0. 0. 0.]
1742665959925711858,1742665959,922081155,imu_link,-0.0155029296875,0.0982666015625,-0.00115966796875,0.99505615234375,[0. 0. 0. 0. 0. 0. 0. 0. 0.],0.0,0.0,0.0,[0. 0. 0. 0. 0. 0. 0. 0. 0.],-1.9140625,-0.3046875,9.58203125,[0. 0. 0. 0. 0. 0. 0. 0. 0.]
1742665959955934136,1742665959,941901247,imu_link,-0.0155029296875,0.0982666015625,-0.00115966796875,0.99505615234375,[0. 0. 0. 0. 0. 0. 0. 0. 0.],0.0,0.0,0.0,[0. 0. 0. 0. 0. 0. 0. 0. 0.],-1.9140625,-0.3046875,9.58203125,[0. 0. 0. 0. 0. 0. 0. 0. 0.]
1742665959972504914,1742665959,961697932,imu_link,-0.0155029296875,0.0982666015625,-0.00115966796875,0.99505615234375,[0. 0. 0. 0. 0. 0. 0. 0. 0.],0.0,0.0,0.0,[0. 0. 0. 0. 0. 0. 0. 0. 0.],-1.9140625,-0.3046875,9.58203125,[0. 0. 0. 0. 0. 0. 0. 0. 0.]
1742665959994809747,1742665959,981679821,imu_link,-0.0155029296875,0.0982666015625,-0.00115966796875,0.99505615234375,[0. 0. 0. 0. 0. 0. 0. 0. 0.],0.0,0.0,0.0,[0. 0. 0. 0. 0. 0. 0. 0. 0.],-1.9140625,-0.3046875,9.58203125,[0. 0. 0. 0. 0. 0. 0. 0. 0.]
1742665960012463877,1742665960,1751969,imu_link,-0.0155029296875,0.0982666015625,-0.00115966796875,0.99505615234375,[0. 0. 0. 0. 0. 0. 0. 0. 0.],0.0,0.0,0.0,[0. 0. 0. 0. 0. 0. 0. 0. 0.],-1.9140625,-0.3046875,9.58203125,[0. 0. 0. 0. 0. 0. 0. 0. 0.]
1742665960025226766,1742665960,21732747,imu_link,-0.0155029296875,0.0982666015625,-0.00115966796875,0.99505615234375,[0. 0. 0. 0. 0. 0. 0. 0. 0.],0.0,0.0,0.0,[0. 0. 0. 0. 0. 0. 0. 0. 0.],-1.9140625,-0.3046875,9.58203125,[0. 0. 0. 0. 0. 0. 0. 0. 0.]
1742665960055822117,1742665960,41865488,imu_link,-0.0155029296875,0.09832763671875,-0.00115966796875,0.99505615234375,[0. 0. 0. 0. 0. 0. 0. 0. 0.],0.0,0.0,0.0,[0. 0. 0. 0. 0. 0. 0. 0. 0.],-1.9140625,-0.3046875,9.58203125,[0. 0. 0. 0. 0. 0. 0. 0. 0.]
1742665960073314432,1742665960,61854840,imu_link,-0.0155029296875,0.09832763671875,-0.00115966796875,0.99505615234375,[0. 0. 0. 0. 0. 0. 0. 0. 0.],0.0,0.0,0.0,[0. 0. 0. 0. 0. 0. 0. 0. 0.],-1.9140625,-0.3046875,9.58203125,[0. 0. 0. 0. 0. 0. 0. 0. 0.]
1742665960097984766,1742665960,81711488,imu_link,-0.0155029296875,0.09832763671875,-0.00115966796875,0.99505615234375,[0. 0. 0. 0. 0. 0. 0. 0. 0.],0.0,0.0,0.0,[0. 0. 0. 0. 0. 0. 0. 0. 0.],-1.9140625,-0.3046875,9.58203125,[0. 0. 0. 0. 0. 0. 0. 0. 0.]
1742665960105109043,1742665960,101710914,imu_link,-0.0155029296875,0.09832763671875,-0.00115966796875,0.99505615234375,[0. 0. 0. 0. 0. 0. 0. 0. 0.],0.0,0.0,0.0,[0. 0. 0. 0. 0. 0. 0. 0. 0.],-1.9140625,-0.3046875,9.58203125,[0. 0. 0. 0. 0. 0. 0. 0. 0.]
1742665960141310229,1742665960,121717173,imu_link,-0.0155029296875,0.09832763671875,-0.00115966796875,0.99505615234375,[0. 0. 0. 0. 0. 0. 0. 0. 0.],0.0,0.0,0.0,[0. 0. 0. 0. 0. 0. 0. 0. 0.],-1.9140625,-0.3046875,9.58203125,[0. 0. 0. 0. 0. 0. 0. 0. 0.]
1742665960145995599,1742665960,143860191,imu_link,-0.0155029296875,0.09832763671875,-0.00115966796875,0.99505615234375,[0. 0. 0. 0. 0. 0. 0. 0. 0.],0.0,0.0,0.0,[0. 0. 0. 0. 0. 0. 0. 0. 0.],-1.9140625,-0.3046875,9.58203125,[0. 0. 0. 0. 0. 0. 0. 0. 0.]
1742665960173439358,1742665960,161753340,imu_link,-0.0155029296875,0.09832763671875,-0.00115966796875,0.99505615234375,[0. 0. 0. 0. 0. 0. 0. 0. 0.],0.0,0.0,0.0,[0. 0. 0. 0. 0. 0. 0. 0. 0.],-1.9140625,-0.3046875,9.58203125,[0. 0. 0. 0. 0. 0. 0. 0. 0.]
1742665960195810229,1742665960,181730043,imu_link,-0.0155029296875,0.09832763671875,-0.00115966796875,0.99505615234375,[0. 0. 0. 0. 0. 0. 0. 0. 0.],0.0,0.0,0.0,[0. 0. 0. 0. 0. 0. 0. 0. 0.],-1.9140625,-0.3046875,9.58203125,[0. 0. 0. 0. 0. 0. 0. 0. 0.]
1742665960205259451,1742665960,201728988,imu_link,-0.0155029296875,0.09832763671875,-0.00115966796875,0.99505615234375,[0. 0. 0. 0. 0. 0. 0. 0. 0.],0.0,0.0,0.0,[0. 0. 0. 0. 0. 0. 0. 0. 0.],-1.9140625,-0.3046875,9.58203125,[0. 0. 0. 0. 0. 0. 0. 0. 0.]
1742665960242236506,1742665960,221775562,imu_link,-0.0155029296875,0.09832763671875,-0.00115966796875,0.99505615234375,[0. 0. 0. 0. 0. 0. 0. 0. 0.],0.0,0.0,0.0,[0. 0. 0. 0. 0. 0. 0. 0. 0.],-1.9140625,-0.3046875,9.58203125,[0. 0. 0. 0. 0. 0. 0. 0. 0.]
1742665960246527506,1742665960,244760006,imu_link,-0.0155029296875,0.09832763671875,-0.00115966796875,0.99505615234375,[0. 0. 0. 0. 0. 0. 0. 0. 0.],0.0,0.0,0.0,[0. 0. 0. 0. 0. 0. 0. 0. 0.],-1.9140625,-0.3046875,9.58203125,[0. 0. 0. 0. 0. 0. 0. 0. 0.]
1742665960273106691,1742665960,261736636,imu_link,-0.0155029296875,0.09832763671875,-0.00115966796875,0.99505615234375,[0. 0. 0. 0. 0. 0. 0. 0. 0.],0.0,0.0,0.0,[0. 0. 0. 0. 0. 0. 0. 0. 0.],-1.9140625,-0.3046875,9.58203125,[0. 0. 0. 0. 0. 0. 0. 0. 0.]
1742665960295094395,1742665960,281752154,imu_link,-0.0155029296875,0.09832763671875,-0.00115966796875,0.99505615234375,[0. 0. 0. 0. 0. 0. 0. 0. 0.],0.0,0.0,0.0,[0. 0. 0. 0. 0. 0. 0. 0. 0.],-1.9140625,-0.3046875,9.58203125,[0. 0. 0. 0. 0. 0. 0. 0. 0.]
1742665960305103932,1742665960,301745951,imu_link,-0.0155029296875,0.09832763671875,-0.00115966796875,0.99505615234375,[0. 0. 0. 0. 0. 0. 0. 0. 0.],0.0,0.0,0.0,[0. 0. 0. 0. 0. 0. 0. 0. 0.],-1.9140625,-0.3046875,9.58203125,[0. 0. 0. 0. 0. 0. 0. 0. 0.]
1742665960342554562,1742665960,321779562,imu_link,-0.0155029296875,0.09832763671875,-0.00115966796875,0.99505615234375,[0. 0. 0. 0. 0. 0. 0. 0. 0.],0.0,0.0,0.0,[0. 0. 0. 0. 0. 0. 0. 0. 0.],-1.9140625,-0.3046875,9.58203125,[0. 0. 0. 0. 0. 0. 0. 0. 0.]
1742665960352277099,1742665960,344651951,imu_link,-0.0155029296875,0.09832763671875,-0.00115966796875,0.99505615234375,[0. 0. 0. 0. 0. 0. 0. 0. 0.],0.0,0.0,0.0,[0. 0. 0. 0. 0. 0. 0. 0. 0.],-1.9140625,-0.3046875,9.58203125,[0. 0. 0. 0. 0. 0. 0. 0. 0.]
1742665960368825488,1742665960,361839062,imu_link,-0.0155029296875,0.09832763671875,-0.00115966796875,0.99505615234375,[0. 0. 0. 0. 0. 0. 0. 0. 0.],0.0,0.0,0.0,[0. 0. 0. 0. 0. 0. 0. 0. 0.],-1.9140625,-0.3046875,9.58203125,[0. 0. 0. 0. 0. 0. 0. 0. 0.]
1742665960395527488,1742665960,382399506,imu_link,-0.0155029296875,0.09832763671875,-0.00115966796875,0.99505615234375,[0. 0. 0. 0. 0. 0. 0. 0. 0.],0.0,0.0,0.0,[0. 0. 0. 0. 0. 0. 0. 0. 0.],-1.9140625,-0.3046875,9.58203125,[0. 0. 0. 0. 0. 0. 0. 0. 0.]
1742665960405196432,1742665960,401749191,imu_link,-0.0155029296875,0.09832763671875,-0.00115966796875,0.99505615234375,[0. 0. 0. 0. 0. 0. 0. 0. 0.],0.0,0.0,0.0,[0. 0. 0. 0. 0. 0. 0. 0. 0.],-1.9140625,-0.3046875,9.58203125,[0. 0. 0. 0. 0. 0. 0. 0. 0.]
1742665960446351525,1742665960,421789080,imu_link,-0.0155029296875,0.09832763671875,-0.00115966796875,0.99505615234375,[0. 0. 0. 0. 0. 0. 0. 0. 0.],0.0,0.0,0.0,[0. 0. 0. 0. 0. 0. 0. 0. 0.],-1.9140625,-0.3046875,9.58203125,[0. 0. 0. 0. 0. 0. 0. 0. 0.]
1742665960451477599,1742665960,447930839,imu_link,-0.0155029296875,0.09832763671875,-0.00115966796875,0.99505615234375,[0. 0. 0. 0. 0. 0. 0. 0. 0.],0.0,0.0,0.0,[0. 0. 0. 0. 0. 0. 0. 0. 0.],-1.9140625,-0.3046875,9.58203125,[0. 0. 0. 0. 0. 0. 0. 0. 0.]
1742665960468266525,1742665960,461767154,imu_link,-0.0155029296875,0.09832763671875,-0.00115966796875,0.99505615234375,[0. 0. 0. 0. 0. 0. 0. 0. 0.],0.0,0.0,0.0,[0. 0. 0. 0. 0. 0. 0. 0. 0.],-1.9140625,-0.3046875,9.58203125,[0. 0. 0. 0. 0. 0. 0. 0. 0.]
1742665960495161876,1742665960,481834191,imu_link,-0.0155029296875,0.098388671875,-0.00115966796875,0.99505615234375,[0. 0. 0. 0. 0. 0. 0. 0. 0.],0.0,0.0,0.0,[0. 0. 0. 0. 0. 0. 0. 0. 0.],-1.9140625,-0.3046875,9.58203125,[0. 0. 0. 0. 0. 0. 0. 0. 0.]
1742665960511820414,1742665960,501762302,imu_link,-0.0155029296875,0.098388671875,-0.00115966796875,0.99505615234375,[0. 0. 0. 0. 0. 0. 0. 0. 0.],0.0,0.0,0.0,[0. 0. 0. 0. 0. 0. 0. 0. 0.],-1.9140625,-0.3046875,9.58203125,[0. 0. 0. 0. 0. 0. 0. 0. 0.]
1742665960525433080,1742665960,521713525,imu_link,-0.0155029296875,0.098388671875,-0.00115966796875,0.99505615234375,[0. 0. 0. 0. 0. 0. 0. 0. 0.],0.0,0.0,0.0,[0. 0. 0. 0. 0. 0. 0. 0. 0.],-1.9140625,-0.3046875,9.58203125,[0. 0. 0. 0. 0. 0. 0. 0. 0.]
1742665960555146413,1742665960,541819210,imu_link,-0.0155029296875,0.098388671875,-0.00115966796875,0.99505615234375,[0. 0. 0. 0. 0. 0. 0. 0. 0.],0.0,0.0,0.0,[0. 0. 0. 0. 0. 0. 0. 0. 0.],-1.9140625,-0.3046875,9.58203125,[0. 0. 0. 0. 0. 0. 0. 0. 0.]
1742665960572661710,1742665960,561824099,imu_link,-0.0155029296875,0.098388671875,-0.00115966796875,0.99505615234375,[0. 0. 0. 0. 0. 0. 0. 0. 0.],0.0,0.0,0.0,[0. 0. 0. 0. 0. 0. 0. 0. 0.],-1.9140625,-0.3046875,9.58203125,[0. 0. 0. 0. 0. 0. 0. 0. 0.]
1742665960594055432,1742665960,581776913,imu_link,-0.0155029296875,0.098388671875,-0.00115966796875,0.99505615234375,[0. 0. 0. 0. 0. 0. 0. 0. 0.],0.0,0.0,0.0,[0. 0. 0. 0. 0. 0. 0. 0. 0.],-1.9140625,-0.3046875,9.58203125,[0. 0. 0. 0. 0. 0. 0. 0. 0.]
1742665960612443432,1742665960,601752228,imu_link,-0.0155029296875,0.098388671875,-0.00115966796875,0.99505615234375,[0. 0. 0. 0. 0. 0. 0. 0. 0.],0.0,0.0,0.0,[0. 0. 0. 0. 0. 0. 0. 0. 0.],-1.9140625,-0.3046875,9.58203125,[0. 0. 0. 0. 0. 0. 0. 0. 0.]
1742665960624582691,1742665960,621701728,imu_link,-0.0155029296875,0.098388671875,-0.00115966796875,0.99505615234375,[0. 0. 0. 0. 0. 0. 0. 0. 0.],0.0,0.0,0.0,[0. 0. 0. 0. 0. 0. 0. 0. 0.],-1.9140625,-0.3046875,9.58203125,[0. 0. 0. 0. 0. 0. 0. 0. 0.]
1742665960655315321,1742665960,641852839,imu_link,-0.0155029296875,0.098388671875,-0.00115966796875,0.99505615234375,[0. 0. 0. 0. 0. 0. 0. 0. 0.],0.0,0.0,0.0,[0. 0. 0. 0. 0. 0. 0. 0. 0.],-1.9140625,-0.3046875,9.58203125,[0. 0. 0. 0. 0. 0. 0. 0. 0.]
1742665960672461858,1742665960,661708839,imu_link,-0.0155029296875,0.098388671875,-0.00115966796875,0.99505615234375,[0. 0. 0. 0. 0. 0. 0. 0. 0.],0.0,0.0,0.0,[0. 0. 0. 0. 0. 0. 0. 0. 0.],-1.9140625,-0.3046875,9.58203125,[0. 0. 0. 0. 0. 0. 0. 0. 0.]
1742665960697313247,1742665960,681801858,imu_link,-0.0155029296875,0.098388671875,-0.00115966796875,0.99505615234375,[0. 0. 0. 0. 0. 0. 0. 0. 0.],0.0,0.0,0.0,[0. 0. 0. 0. 0. 0. 0. 0. 0.],-1.87890625,-0.3046875,9.578125,[0. 0. 0. 0. 0. 0. 0. 0. 0.]
1742665960704812839,1742665960,701722858,imu_link,-0.0155029296875,0.098388671875,-0.00115966796875,0.99505615234375,[0. 0. 0. 0. 0. 0. 0. 0. 0.],0.0,0.0,0.0,[0. 0. 0. 0. 0. 0. 0. 0. 0.],-1.87890625,-0.3046875,9.578125,[0. 0. 0. 0. 0. 0. 0. 0. 0.]
1742665960742082469,1742665960,721757247,imu_link,-0.01556396484375,0.098388671875,-0.00115966796875,0.99505615234375,[0. 0. 0. 0. 0. 0. 0. 0. 0.],0.0,0.0,0.0,[0. 0. 0. 0. 0. 0. 0. 0. 0.],-1.9140625,-0.3046875,9.58203125,[0. 0. 0. 0. 0. 0. 0. 0. 0.]
1742665960746417784,1742665960,744707062,imu_link,-0.01556396484375,0.098388671875,-0.00115966796875,0.99505615234375,[0. 0. 0. 0. 0. 0. 0. 0. 0.],0.0,0.0,0.0,[0. 0. 0. 0. 0. 0. 0. 0. 0.],-1.9140625,-0.3046875,9.58203125,[0. 0. 0. 0. 0. 0. 0. 0. 0.]
1742665960772959210,1742665960,761765210,imu_link,-0.01556396484375,0.098388671875,-0.00115966796875,0.99505615234375,[0. 0. 0. 0. 0. 0. 0. 0. 0.],0.0,0.0,0.0,[0. 0. 0. 0. 0. 0. 0. 0. 0.],-1.87890625,-0.3046875,9.578125,[0. 0. 0. 0. 0. 0. 0. 0. 0.]
1742665960797310061,1742665960,781800987,imu_link,-0.01556396484375,0.098388671875,-0.00115966796875,0.99505615234375,[0. 0. 0. 0. 0. 0. 0. 0. 0.],0.0,0.0,0.0,[0. 0. 0. 0. 0. 0. 0. 0. 0.],-1.9140625,-0.3046875,9.58203125,[0. 0. 0. 0. 0. 0. 0. 0. 0.]
1742665960804491950,1742665960,801746895,imu_link,-0.01556396484375,0.098388671875,-0.00115966796875,0.99505615234375,[0. 0. 0. 0. 0. 0. 0. 0. 0.],0.0,0.0,0.0,[0. 0. 0. 0. 0. 0. 0. 0. 0.],-1.9140625,-0.3046875,9.58203125,[0. 0. 0. 0. 0. 0. 0. 0. 0.]
1742665960840858821,1742665960,821773654,imu_link,-0.01556396484375,0.098388671875,-0.00115966796875,0.99505615234375,[0. 0. 0. 0. 0. 0. 0. 0. 0.],0.0,0.0,0.0,[0. 0. 0. 0. 0. 0. 0. 0. 0.],-1.9140625,-0.3046875,9.58203125,[0. 0. 0. 0. 0. 0. 0. 0. 0.]
1742665960845395432,1742665960,843416173,imu_link,-0.01556396484375,0.098388671875,-0.00115966796875,0.99505615234375,[0. 0. 0. 0. 0. 0. 0. 0. 0.],0.0,0.0,0.0,[0. 0. 0. 0. 0. 0. 0. 0. 0.],-1.9140625,-0.3046875,9.58203125,[0. 0. 0. 0. 0. 0. 0. 0. 0.]
1742665960872884987,1742665960,861773173,imu_link,-0.01556396484375,0.098388671875,-0.00115966796875,0.99505615234375,[0. 0. 0. 0. 0. 0. 0. 0. 0.],0.0,0.0,0.0,[0. 0. 0. 0. 0. 0. 0. 0. 0.],-1.9140625,-0.3046875,9.58203125,[0. 0. 0. 0. 0. 0. 0. 0. 0.]
1742665960894995932,1742665960,881855728,imu_link,-0.01556396484375,0.09832763671875,-0.00115966796875,0.99505615234375,[0. 0. 0. 0. 0. 0. 0. 0. 0.],0.0,0.0,0.0,[0. 0. 0. 0. 0. 0. 0. 0. 0.],-1.9140625,-0.3046875,9.58203125,[0. 0. 0. 0. 0. 0. 0. 0. 0.]
1742665960904915876,1742665960,901760210,imu_link,-0.01556396484375,0.09832763671875,-0.00115966796875,0.99505615234375,[0. 0. 0. 0. 0. 0. 0. 0. 0.],0.0,0.0,0.0,[0. 0. 0. 0. 0. 0. 0. 0. 0.],-1.9140625,-0.3046875,9.58203125,[0. 0. 0. 0. 0. 0. 0. 0. 0.]
1742665960940476913,1742665960,921788339,imu_link,-0.01556396484375,0.09832763671875,-0.00115966796875,0.99505615234375,[0. 0. 0. 0. 0. 0. 0. 0. 0.],0.0,0.0,0.0,[0. 0. 0. 0. 0. 0. 0. 0. 0.],-1.87890625,-0.3046875,9.578125,[0. 0. 0. 0. 0. 0. 0. 0. 0.]
1742665960950582358,1742665960,943470598,imu_link,-0.01556396484375,0.09832763671875,-0.00115966796875,0.99505615234375,[0. 0. 0. 0. 0. 0. 0. 0. 0.],0.0,0.0,0.0,[0. 0. 0. 0. 0. 0. 0. 0. 0.],-1.87890625,-0.3046875,9.578125,[0. 0. 0. 0. 0. 0. 0. 0. 0.]
1742665960968480858,1742665960,961780691,imu_link,-0.01556396484375,0.09832763671875,-0.00115966796875,0.99505615234375,[0. 0. 0. 0. 0. 0. 0. 0. 0.],0.0,0.0,0.0,[0. 0. 0. 0. 0. 0. 0. 0. 0.],-1.87890625,-0.3046875,9.578125,[0. 0. 0. 0. 0. 0. 0. 0. 0.]
1742665960994544617,1742665960,981796284,imu_link,-0.01556396484375,0.09832763671875,-0.00115966796875,0.99505615234375,[0. 0. 0. 0. 0. 0. 0. 0. 0.],0.0,0.0,0.0,[0. 0. 0. 0. 0. 0. 0. 0. 0.],-1.9140625,-0.3046875,9.58203125,[0. 0. 0. 0. 0. 0. 0. 0. 0.]
1742665961004525895,1742665961,1715154,imu_link,-0.01556396484375,0.09832763671875,-0.00115966796875,0.99505615234375,[0. 0. 0. 0. 0. 0. 0. 0. 0.],0.0,0.0,0.0,[0. 0. 0. 0. 0. 0. 0. 0. 0.],-1.9140625,-0.3046875,9.58203125,[0. 0. 0. 0. 0. 0. 0. 0. 0.]
1742665961044157302,1742665961,21715154,imu_link,-0.01556396484375,0.0982666015625,-0.00115966796875,0.99505615234375,[0. 0. 0. 0. 0. 0. 0. 0. 0.],0.0,0.0,0.0,[0. 0. 0. 0. 0. 0. 0. 0. 0.],-1.87890625,-0.3046875,9.578125,[0. 0. 0. 0. 0. 0. 0. 0. 0.]
1742665961048720895,1742665961,45794284,imu_link,-0.01556396484375,0.0982666015625,-0.00115966796875,0.99505615234375,[0. 0. 0. 0. 0. 0. 0. 0. 0.],0.0,0.0,0.0,[0. 0. 0. 0. 0. 0. 0. 0. 0.],-1.9140625,-0.3046875,9.58203125,[0. 0. 0. 0. 0. 0. 0. 0. 0.]
1742665961067669858,1742665961,61842561,imu_link,-0.01556396484375,0.0982666015625,-0.00115966796875,0.99505615234375,[0. 0. 0. 0. 0. 0. 0. 0. 0.],0.0,0.0,0.0,[0. 0. 0. 0. 0. 0. 0. 0. 0.],-1.9140625,-0.3046875,9.58203125,[0. 0. 0. 0. 0. 0. 0. 0. 0.]
1742665961094120691,1742665961,81799117,imu_link,-0.01556396484375,0.0982666015625,-0.00115966796875,0.99505615234375,[0. 0. 0. 0. 0. 0. 0. 0. 0.],0.0,0.0,0.0,[0. 0. 0. 0. 0. 0. 0. 0. 0.],-1.9140625,-0.3046875,9.58203125,[0. 0. 0. 0. 0. 0. 0. 0. 0.]
1742665961112532469,1742665961,101784265,imu_link,-0.01556396484375,0.0982666015625,-0.00115966796875,0.99505615234375,[0. 0. 0. 0. 0. 0. 0. 0. 0.],0.0,0.0,0.0,[0. 0. 0. 0. 0. 0. 0. 0. 0.],-1.9140625,-0.3046875,9.58203125,[0. 0. 0. 0. 0. 0. 0. 0. 0.]
1742665961123853987,1742665961,121721617,imu_link,-0.01556396484375,0.0982666015625,-0.00115966796875,0.99505615234375,[0. 0. 0. 0. 0. 0. 0. 0. 0.],0.0,0.0,0.0,[0. 0. 0. 0. 0. 0. 0. 0. 0.],-1.9140625,-0.3046875,9.58203125,[0. 0. 0. 0. 0. 0. 0. 0. 0.]
1742665961161729654,1742665961,142029950,imu_link,-0.01556396484375,0.09820556640625,-0.00115966796875,0.99505615234375,[0. 0. 0. 0. 0. 0. 0. 0. 0.],0.0,0.0,0.0,[0. 0. 0. 0. 0. 0. 0. 0. 0.],-1.9140625,-0.3046875,9.58203125,[0. 0. 0. 0. 0. 0. 0. 0. 0.]
1742665961166038913,1742665961,164290672,imu_link,-0.01556396484375,0.09820556640625,-0.00115966796875,0.99505615234375,[0. 0. 0. 0. 0. 0. 0. 0. 0.],0.0,0.0,0.0,[0. 0. 0. 0. 0. 0. 0. 0. 0.],-1.9140625,-0.3046875,9.58203125,[0. 0. 0. 0. 0. 0. 0. 0. 0.]
1742665961194228191,1742665961,181799321,imu_link,-0.01556396484375,0.09820556640625,-0.00115966796875,0.99505615234375,[0. 0. 0. 0. 0. 0. 0. 0. 0.],0.0,0.0,0.0,[0. 0. 0. 0. 0. 0. 0. 0. 0.],-1.9140625,-0.3046875,9.58203125,[0. 0. 0. 0. 0. 0. 0. 0. 0.]
1742665961212501358,1742665961,201765895,imu_link,-0.01556396484375,0.09820556640625,-0.00115966796875,0.99505615234375,[0. 0. 0. 0. 0. 0. 0. 0. 0.],0.0,0.0,0.0,[0. 0. 0. 0. 0. 0. 0. 0. 0.],-1.9140625,-0.3046875,9.58203125,[0. 0. 0. 0. 0. 0. 0. 0. 0.]
1742665961223939080,1742665961,221721246,imu_link,-0.01556396484375,0.09820556640625,-0.00115966796875,0.99505615234375,[0. 0. 0. 0. 0. 0. 0. 0. 0.],0.0,0.0,0.0,[0. 0. 0. 0. 0. 0. 0. 0. 0.],-1.9140625,-0.3046875,9.58203125,[0. 0. 0. 0. 0. 0. 0. 0. 0.]
1742665961259190487,1742665961,242087580,imu_link,-0.01556396484375,0.09814453125,-0.00115966796875,0.99505615234375,[0. 0. 0. 0. 0. 0. 0. 0. 0.],0.0,0.0,0.0,[0. 0. 0. 0. 0. 0. 0. 0. 0.],-1.9140625,-0.3046875,9.58203125,[0. 0. 0. 0. 0. 0. 0. 0. 0.]
1742665961269896783,1742665961,266215376,imu_link,-0.01556396484375,0.09814453125,-0.00115966796875,0.99505615234375,[0. 0. 0. 0. 0. 0. 0. 0. 0.],0.0,0.0,0.0,[0. 0. 0. 0. 0. 0. 0. 0. 0.],-1.9140625,-0.3046875,9.58203125,[0. 0. 0. 0. 0. 0. 0. 0. 0.]
1742665961298996191,1742665961,281796043,imu_link,-0.01556396484375,0.09814453125,-0.00115966796875,0.99505615234375,[0. 0. 0. 0. 0. 0. 0. 0. 0.],0.0,0.0,0.0,[0. 0. 0. 0. 0. 0. 0. 0. 0.],-1.87890625,-0.3046875,9.5390625,[0. 0. 0. 0. 0. 0. 0. 0. 0.]
1742665961304330154,1742665961,301717487,imu_link,-0.01556396484375,0.09814453125,-0.00115966796875,0.99505615234375,[0. 0. 0. 0. 0. 0. 0. 0. 0.],0.0,0.0,0.0,[0. 0. 0. 0. 0. 0. 0. 0. 0.],-1.87890625,-0.3046875,9.5390625,[0. 0. 0. 0. 0. 0. 0. 0. 0.]
1742665961335777283,1742665961,321795172,imu_link,-0.0155029296875,0.09814453125,-0.0009765625,0.99505615234375,[0. 0. 0. 0. 0. 0. 0. 0. 0.],-0.001953125,-0.001953125,0.005859375,[0. 0. 0. 0. 0. 0. 0. 0. 0.],-1.87890625,-0.3046875,9.5390625,[0. 0. 0. 0. 0. 0. 0. 0. 0.]
1742665961343932246,1742665961,341723283,imu_link,-0.0155029296875,0.09814453125,-0.0009765625,0.99505615234375,[0. 0. 0. 0. 0. 0. 0. 0. 0.],-0.001953125,-0.001953125,0.005859375,[0. 0. 0. 0. 0. 0. 0. 0. 0.],-1.33984375,-0.7265625,9.58203125,[0. 0. 0. 0. 0. 0. 0. 0. 0.]
1742665961373010950,1742665961,361788080,imu_link,-0.0155029296875,0.09814453125,-0.0009765625,0.99505615234375,[0. 0. 0. 0. 0. 0. 0. 0. 0.],0.017578125,0.0,0.125,[0. 0. 0. 0. 0. 0. 0. 0. 0.],-0.65234375,-1.109375,9.61328125,[0. 0. 0. 0. 0. 0. 0. 0. 0.]
1742665961398964376,1742665961,381929783,imu_link,-0.014892578125,0.09814453125,0.0015869140625,0.99505615234375,[0. 0. 0. 0. 0. 0. 0. 0. 0.],0.017578125,0.0,0.125,[0. 0. 0. 0. 0. 0. 0. 0. 0.],-0.421875,-0.765625,9.73046875,[0. 0. 0. 0. 0. 0. 0. 0. 0.]
1742665961403876228,1742665961,401722543,imu_link,-0.014892578125,0.09814453125,0.0015869140625,0.99505615234375,[0. 0. 0. 0. 0. 0. 0. 0. 0.],0.017578125,0.0,0.125,[0. 0. 0. 0. 0. 0. 0. 0. 0.],-0.421875,-0.765625,9.73046875,[0. 0. 0. 0. 0. 0. 0. 0. 0.]
1742665961439729709,1742665961,421794431,imu_link,-0.014892578125,0.09820556640625,0.00439453125,0.99505615234375,[0. 0. 0. 0. 0. 0. 0. 0. 0.],-0.005859375,0.005859375,0.09375,[0. 0. 0. 0. 0. 0. 0. 0. 0.],-0.4609375,-0.34375,9.69140625,[0. 0. 0. 0. 0. 0. 0. 0. 0.]
1742665961444279728,1742665961,442500598,imu_link,-0.014892578125,0.09820556640625,0.00439453125,0.99505615234375,[0. 0. 0. 0. 0. 0. 0. 0. 0.],-0.005859375,0.005859375,0.09375,[0. 0. 0. 0. 0. 0. 0. 0. 0.],-0.4609375,-0.34375,9.69140625,[0. 0. 0. 0. 0. 0. 0. 0. 0.]
1742665961473223209,1742665961,461790857,imu_link,-0.014892578125,0.09820556640625,0.00439453125,0.99505615234375,[0. 0. 0. 0. 0. 0. 0. 0. 0.],-0.02734375,0.005859375,0.0859375,[0. 0. 0. 0. 0. 0. 0. 0. 0.],-0.4609375,-0.53515625,9.6484375,[0. 0. 0. 0. 0. 0. 0. 0. 0.]
1742665961495083820,1742665961,481746320,imu_link,-0.015380859375,0.09832763671875,0.0064697265625,0.9949951171875,[0. 0. 0. 0. 0. 0. 0. 0. 0.],-0.02734375,0.005859375,0.0859375,[0. 0. 0. 0. 0. 0. 0. 0. 0.],-0.95703125,-0.49609375,9.54296875,[0. 0. 0. 0. 0. 0. 0. 0. 0.]
1742665961503935043,1742665961,501736117,imu_link,-0.015380859375,0.09832763671875,0.0064697265625,0.9949951171875,[0. 0. 0. 0. 0. 0. 0. 0. 0.],-0.02734375,0.005859375,0.0859375,[0. 0. 0. 0. 0. 0. 0. 0. 0.],-0.95703125,-0.49609375,9.54296875,[0. 0. 0. 0. 0. 0. 0. 0. 0.]
1742665961539226450,1742665961,521790191,imu_link,-0.01513671875,0.09857177734375,0.01055908203125,0.99493408203125,[0. 0. 0. 0. 0. 0. 0. 0. 0.],-0.005859375,0.009765625,0.173828125,[0. 0. 0. 0. 0. 0. 0. 0. 0.],-1.68359375,-0.0390625,9.65234375,[0. 0. 0. 0. 0. 0. 0. 0. 0.]
1742665961543823357,1742665961,541811376,imu_link,-0.01513671875,0.09857177734375,0.01055908203125,0.99493408203125,[0. 0. 0. 0. 0. 0. 0. 0. 0.],-0.005859375,0.009765625,0.173828125,[0. 0. 0. 0. 0. 0. 0. 0. 0.],-1.68359375,-0.0390625,9.65234375,[0. 0. 0. 0. 0. 0. 0. 0. 0.]
1742665961569426376,1742665961,561738765,imu_link,-0.01513671875,0.09857177734375,0.01055908203125,0.99493408203125,[0. 0. 0. 0. 0. 0. 0. 0. 0.],0.00390625,0.0078125,0.13671875,[0. 0. 0. 0. 0. 0. 0. 0. 0.],-2.10546875,0.0390625,9.50390625,[0. 0. 0. 0. 0. 0. 0. 0. 0.]
1742665961594833820,1742665961,581731561,imu_link,-0.014892578125,0.09869384765625,0.0140380859375,0.99493408203125,[0. 0. 0. 0. 0. 0. 0. 0. 0.],0.00390625,0.0078125,0.13671875,[0. 0. 0. 0. 0. 0. 0. 0. 0.],-2.375,0.11328125,9.6875,[0. 0. 0. 0. 0. 0. 0. 0. 0.]
1742665961603746191,1742665961,601753876,imu_link,-0.014892578125,0.09869384765625,0.0140380859375,0.99493408203125,[0. 0. 0. 0. 0. 0. 0. 0. 0.],0.00390625,0.0078125,0.13671875,[0. 0. 0. 0. 0. 0. 0. 0. 0.],-2.375,0.11328125,9.6875,[0. 0. 0. 0. 0. 0. 0. 0. 0.]
1742665961638283228,1742665961,621787394,imu_link,-0.01531982421875,0.09881591796875,0.01507568359375,0.994873046875,[0. 0. 0. 0. 0. 0. 0. 0. 0.],-0.013671875,0.005859375,0.02734375,[0. 0. 0. 0. 0. 0. 0. 0. 0.],-2.56640625,0.15234375,9.46484375,[0. 0. 0. 0. 0. 0. 0. 0. 0.]
1742665961647552376,1742665961,644586024,imu_link,-0.01531982421875,0.09881591796875,0.01507568359375,0.994873046875,[0. 0. 0. 0. 0. 0. 0. 0. 0.],-0.013671875,0.005859375,0.02734375,[0. 0. 0. 0. 0. 0. 0. 0. 0.],-2.60546875,0.11328125,9.54296875,[0. 0. 0. 0. 0. 0. 0. 0. 0.]
1742665961669193672,1742665961,661732709,imu_link,-0.01531982421875,0.09881591796875,0.01507568359375,0.994873046875,[0. 0. 0. 0. 0. 0. 0. 0. 0.],-0.017578125,0.001953125,-0.029296875,[0. 0. 0. 0. 0. 0. 0. 0. 0.],-2.60546875,0.11328125,9.54296875,[0. 0. 0. 0. 0. 0. 0. 0. 0.]
1742665961693589098,1742665961,681711765,imu_link,-0.015869140625,0.0987548828125,0.0145263671875,0.994873046875,[0. 0. 0. 0. 0. 0. 0. 0. 0.],-0.017578125,0.001953125,-0.029296875,[0. 0. 0. 0. 0. 0. 0. 0. 0.],-2.375,-0.15234375,9.42578125,[0. 0. 0. 0. 0. 0. 0. 0. 0.]
1742665961712746061,1742665961,701781616,imu_link,-0.015869140625,0.0987548828125,0.0145263671875,0.994873046875,[0. 0. 0. 0. 0. 0. 0. 0. 0.],0.00390625,0.001953125,0.03515625,[0. 0. 0. 0. 0. 0. 0. 0. 0.],-2.296875,-0.15234375,9.609375,[0. 0. 0. 0. 0. 0. 0. 0. 0.]
1742665961723537987,1742665961,721762357,imu_link,-0.015869140625,0.0987548828125,0.0145263671875,0.994873046875,[0. 0. 0. 0. 0. 0. 0. 0. 0.],0.00390625,0.001953125,0.03515625,[0. 0. 0. 0. 0. 0. 0. 0. 0.],-2.296875,-0.15234375,9.609375,[0. 0. 0. 0. 0. 0. 0. 0. 0.]
1742665961753669079,1742665961,741774561,imu_link,-0.01580810546875,0.09869384765625,0.01513671875,0.994873046875,[0. 0. 0. 0. 0. 0. 0. 0. 0.],0.00390625,0.001953125,0.03515625,[0. 0. 0. 0. 0. 0. 0. 0. 0.],-2.296875,-0.078125,9.50390625,[0. 0. 0. 0. 0. 0. 0. 0. 0.]
1742665961763410302,1742665961,761695913,imu_link,-0.01580810546875,0.09869384765625,0.01513671875,0.994873046875,[0. 0. 0. 0. 0. 0. 0. 0. 0.],0.009765625,0.001953125,0.0,[0. 0. 0. 0. 0. 0. 0. 0. 0.],-2.296875,-0.078125,9.50390625,[0. 0. 0. 0. 0. 0. 0. 0. 0.]
1742665961793682968,1742665961,781797913,imu_link,-0.015625,0.09857177734375,0.0152587890625,0.994873046875,[0. 0. 0. 0. 0. 0. 0. 0. 0.],0.009765625,0.001953125,0.0,[0. 0. 0. 0. 0. 0. 0. 0. 0.],-2.18359375,-0.0390625,9.61328125,[0. 0. 0. 0. 0. 0. 0. 0. 0.]
1742665961812412524,1742665961,801702820,imu_link,-0.015625,0.09857177734375,0.0152587890625,0.994873046875,[0. 0. 0. 0. 0. 0. 0. 0. 0.],-0.001953125,-0.00390625,-0.078125,[0. 0. 0. 0. 0. 0. 0. 0. 0.],-2.0703125,-0.11328125,9.58203125,[0. 0. 0. 0. 0. 0. 0. 0. 0.]
1742665961823616135,1742665961,821788116,imu_link,-0.015625,0.09857177734375,0.0152587890625,0.994873046875,[0. 0. 0. 0. 0. 0. 0. 0. 0.],-0.001953125,-0.00390625,-0.078125,[0. 0. 0. 0. 0. 0. 0. 0. 0.],-2.0703125,-0.11328125,9.58203125,[0. 0. 0. 0. 0. 0. 0. 0. 0.]
1742665961843697283,1742665961,841962005,imu_link,-0.015869140625,0.09844970703125,0.01361083984375,0.99493408203125,[0. 0. 0. 0. 0. 0. 0. 0. 0.],-0.001953125,-0.00390625,-0.078125,[0. 0. 0. 0. 0. 0. 0. 0. 0.],-1.87890625,-0.078125,9.50390625,[0. 0. 0. 0. 0. 0. 0. 0. 0.]
1742665961872986542,1742665961,861798728,imu_link,-0.015869140625,0.09844970703125,0.01361083984375,0.99493408203125,[0. 0. 0. 0. 0. 0. 0. 0. 0.],0.00390625,0.0,-0.09375,[0. 0. 0. 0. 0. 0. 0. 0. 0.],-1.609375,-0.3828125,9.61328125,[0. 0. 0. 0. 0. 0. 0. 0. 0.]
1742665961899097468,1742665961,881757487,imu_link,-0.01617431640625,0.0982666015625,0.0113525390625,0.99493408203125,[0. 0. 0. 0. 0. 0. 0. 0. 0.],0.00390625,0.0,-0.09375,[0. 0. 0. 0. 0. 0. 0. 0. 0.],-1.41796875,-0.49609375,9.54296875,[0. 0. 0. 0. 0. 0. 0. 0. 0.]
1742665961908541524,1742665961,902094802,imu_link,-0.01617431640625,0.0982666015625,0.0113525390625,0.99493408203125,[0. 0. 0. 0. 0. 0. 0. 0. 0.],0.00390625,0.0,-0.09375,[0. 0. 0. 0. 0. 0. 0. 0. 0.],-1.41796875,-0.49609375,9.54296875,[0. 0. 0. 0. 0. 0. 0. 0. 0.]
1742665961923831709,1742665961,921801339,imu_link,-0.01617431640625,0.0982666015625,0.0113525390625,0.99493408203125,[0. 0. 0. 0. 0. 0. 0. 0. 0.],0.01953125,0.005859375,-0.005859375,[0. 0. 0. 0. 0. 0. 0. 0. 0.],-1.41796875,-0.49609375,9.54296875,[0. 0. 0. 0. 0. 0. 0. 0. 0.]
1742665961943723413,1742665961,941725153,imu_link,-0.01611328125,0.0982666015625,0.01080322265625,0.9949951171875,[0. 0. 0. 0. 0. 0. 0. 0. 0.],0.01953125,0.005859375,-0.005859375,[0. 0. 0. 0. 0. 0. 0. 0. 0.],-1.4921875,-0.49609375,9.6875,[0. 0. 0. 0. 0. 0. 0. 0. 0.]
1742665961972868653,1742665961,961790913,imu_link,-0.01611328125,0.0982666015625,0.01080322265625,0.9949951171875,[0. 0. 0. 0. 0. 0. 0. 0. 0.],0.013671875,0.009765625,-0.04296875,[0. 0. 0. 0. 0. 0. 0. 0. 0.],-1.6484375,-0.4609375,9.5,[0. 0. 0. 0. 0. 0. 0. 0. 0.]
1742665961993987950,1742665961,981730190,imu_link,-0.01617431640625,0.09820556640625,0.00994873046875,0.9949951171875,[0. 0. 0. 0. 0. 0. 0. 0. 0.],0.013671875,0.009765625,-0.04296875,[0. 0. 0. 0. 0. 0. 0. 0. 0.],-1.68359375,-0.49609375,9.6875,[0. 0. 0. 0. 0. 0. 0. 0. 0.]
1742665962003432598,1742665962,1701764,imu_link,-0.01617431640625,0.09820556640625,0.00994873046875,0.9949951171875,[0. 0. 0. 0. 0. 0. 0. 0. 0.],0.013671875,0.009765625,-0.04296875,[0. 0. 0. 0. 0. 0. 0. 0. 0.],-1.68359375,-0.49609375,9.6875,[0. 0. 0. 0. 0. 0. 0. 0. 0.]
1742665962036297579,1742665962,21784542,imu_link,-0.01641845703125,0.09814453125,0.00897216796875,0.9949951171875,[0. 0. 0. 0. 0. 0. 0. 0. 0.],0.001953125,0.005859375,-0.037109375,[0. 0. 0. 0. 0. 0. 0. 0. 0.],-1.83984375,-0.421875,9.5,[0. 0. 0. 0. 0. 0. 0. 0. 0.]
1742665962043481857,1742665962,41729246,imu_link,-0.01641845703125,0.09814453125,0.00897216796875,0.9949951171875,[0. 0. 0. 0. 0. 0. 0. 0. 0.],0.001953125,0.005859375,-0.037109375,[0. 0. 0. 0. 0. 0. 0. 0. 0.],-1.83984375,-0.421875,9.5,[0. 0. 0. 0. 0. 0. 0. 0. 0.]
1742665962072791283,1742665962,61946339,imu_link,-0.01641845703125,0.09814453125,0.00897216796875,0.9949951171875,[0. 0. 0. 0. 0. 0. 0. 0. 0.],-0.00390625,0.0078125,-0.017578125,[0. 0. 0. 0. 0. 0. 0. 0. 0.],-2.0703125,-0.15234375,9.58203125,[0. 0. 0. 0. 0. 0. 0. 0. 0.]
1742665962094199968,1742665962,81761061,imu_link,-0.0166015625,0.09808349609375,0.0084228515625,0.9949951171875,[0. 0. 0. 0. 0. 0. 0. 0. 0.],-0.00390625,0.0078125,-0.017578125,[0. 0. 0. 0. 0. 0. 0. 0. 0.],-2.26171875,-0.11328125,9.6484375,[0. 0. 0. 0. 0. 0. 0. 0. 0.]
1742665962103650727,1742665962,101775968,imu_link,-0.0166015625,0.09808349609375,0.0084228515625,0.9949951171875,[0. 0. 0. 0. 0. 0. 0. 0. 0.],-0.00390625,0.0078125,-0.017578125,[0. 0. 0. 0. 0. 0. 0. 0. 0.],-2.26171875,-0.11328125,9.6484375,[0. 0. 0. 0. 0. 0. 0. 0. 0.]
1742665962136850820,1742665962,121789505,imu_link,-0.016845703125,0.09808349609375,0.00726318359375,0.9949951171875,[0. 0. 0. 0. 0. 0. 0. 0. 0.],-0.005859375,0.005859375,-0.052734375,[0. 0. 0. 0. 0. 0. 0. 0. 0.],-2.22265625,-0.3046875,9.5390625,[0. 0. 0. 0. 0. 0. 0. 0. 0.]
1742665962143499542,1742665962,141730005,imu_link,-0.016845703125,0.09808349609375,0.00726318359375,0.9949951171875,[0. 0. 0. 0. 0. 0. 0. 0. 0.],-0.005859375,0.005859375,-0.052734375,[0. 0. 0. 0. 0. 0. 0. 0. 0.],-2.22265625,-0.3046875,9.5390625,[0. 0. 0. 0. 0. 0. 0. 0. 0.]
1742665962173143153,1742665962,161985042,imu_link,-0.016845703125,0.09808349609375,0.00726318359375,0.9949951171875,[0. 0. 0. 0. 0. 0. 0. 0. 0.],-0.00390625,0.00390625,-0.0234375,[0. 0. 0. 0. 0. 0. 0. 0. 0.],-2.0703125,-0.4609375,9.54296875,[0. 0. 0. 0. 0. 0. 0. 0. 0.]
1742665962189369690,1742665962,186022653,imu_link,-0.01702880859375,0.0980224609375,0.00665283203125,0.9949951171875,[0. 0. 0. 0. 0. 0. 0. 0. 0.],-0.00390625,0.00390625,-0.0234375,[0. 0. 0. 0. 0. 0. 0. 0. 0.],-1.9921875,-0.49609375,9.5390625,[0. 0. 0. 0. 0. 0. 0. 0. 0.]
1742665962203872172,1742665962,201767616,imu_link,-0.01702880859375,0.0980224609375,0.00665283203125,0.9949951171875,[0. 0. 0. 0. 0. 0. 0. 0. 0.],-0.00390625,0.00390625,-0.0234375,[0. 0. 0. 0. 0. 0. 0. 0. 0.],-1.9921875,-0.49609375,9.5390625,[0. 0. 0. 0. 0. 0. 0. 0. 0.]
1742665962223849857,1742665962,221736172,imu_link,-0.01702880859375,0.0980224609375,0.00665283203125,0.9949951171875,[0. 0. 0. 0. 0. 0. 0. 0. 0.],-0.00390625,0.00390625,-0.015625,[0. 0. 0. 0. 0. 0. 0. 0. 0.],-1.9921875,-0.421875,9.609375,[0. 0. 0. 0. 0. 0. 0. 0. 0.]
1742665962248470450,1742665962,241800801,imu_link,-0.0172119140625,0.0980224609375,0.0062255859375,0.9949951171875,[0. 0. 0. 0. 0. 0. 0. 0. 0.],-0.00390625,0.00390625,-0.015625,[0. 0. 0. 0. 0. 0. 0. 0. 0.],-1.953125,-0.421875,9.54296875,[0. 0. 0. 0. 0. 0. 0. 0. 0.]
1742665962270023690,1742665962,261931987,imu_link,-0.0172119140625,0.0980224609375,0.0062255859375,0.9949951171875,[0. 0. 0. 0. 0. 0. 0. 0. 0.],-0.00390625,0.00390625,-0.01171875,[0. 0. 0. 0. 0. 0. 0. 0. 0.],-1.953125,-0.421875,9.54296875,[0. 0. 0. 0. 0. 0. 0. 0. 0.]
1742665962290777987,1742665962,287029116,imu_link,-0.017333984375,0.09796142578125,0.00592041015625,0.9949951171875,[0. 0. 0. 0. 0. 0. 0. 0. 0.],-0.00390625,0.00390625,-0.01171875,[0. 0. 0. 0. 0. 0. 0. 0. 0.],-1.9140625,-0.3828125,9.61328125,[0. 0. 0. 0. 0. 0. 0. 0. 0.]
1742665962311715079,1742665962,301725931,imu_link,-0.017333984375,0.09796142578125,0.00592041015625,0.9949951171875,[0. 0. 0. 0. 0. 0. 0. 0. 0.],0.0,0.00390625,-0.00390625,[0. 0. 0. 0. 0. 0. 0. 0. 0.],-1.9140625,-0.3828125,9.61328125,[0. 0. 0. 0. 0. 0. 0. 0. 0.]
1742665962323537542,1742665962,321770468,imu_link,-0.017333984375,0.09796142578125,0.00592041015625,0.9949951171875,[0. 0. 0. 0. 0. 0. 0. 0. 0.],0.0,0.00390625,-0.00390625,[0. 0. 0. 0. 0. 0. 0. 0. 0.],-1.953125,-0.34375,9.578125,[0. 0. 0. 0. 0. 0. 0. 0. 0.]
1742665962348421542,1742665962,341719524,imu_link,-0.01739501953125,0.09796142578125,0.005859375,0.9949951171875,[0. 0. 0. 0. 0. 0. 0. 0. 0.],0.0,0.00390625,-0.00390625,[0. 0. 0. 0. 0. 0. 0. 0. 0.],-1.953125,-0.34375,9.5390625,[0. 0. 0. 0. 0. 0. 0. 0. 0.]
1742665962372315320,1742665962,361788264,imu_link,-0.01739501953125,0.09796142578125,0.005859375,0.9949951171875,[0. 0. 0. 0. 0. 0. 0. 0. 0.],0.00390625,0.001953125,-0.013671875,[0. 0. 0. 0. 0. 0. 0. 0. 0.],-1.953125,-0.34375,9.65234375,[0. 0. 0. 0. 0. 0. 0. 0. 0.]
1742665962393274727,1742665962,381769209,imu_link,-0.01751708984375,0.097900390625,0.00555419921875,0.9949951171875,[0. 0. 0. 0. 0. 0. 0. 0. 0.],0.00390625,0.001953125,-0.013671875,[0. 0. 0. 0. 0. 0. 0. 0. 0.],-1.953125,-0.34375,9.65234375,[0. 0. 0. 0. 0. 0. 0. 0. 0.]
1742665962412153838,1742665962,401715357,imu_link,-0.01751708984375,0.097900390625,0.00555419921875,0.9949951171875,[0. 0. 0. 0. 0. 0. 0. 0. 0.],0.00390625,0.00390625,0.00390625,[0. 0. 0. 0. 0. 0. 0. 0. 0.],-1.9140625,-0.421875,9.54296875,[0. 0. 0. 0. 0. 0. 0. 0. 0.]
1742665962423619449,1742665962,421774023,imu_link,-0.01751708984375,0.097900390625,0.00555419921875,0.9949951171875,[0. 0. 0. 0. 0. 0. 0. 0. 0.],0.00390625,0.00390625,0.00390625,[0. 0. 0. 0. 0. 0. 0. 0. 0.],-1.9140625,-0.421875,9.54296875,[0. 0. 0. 0. 0. 0. 0. 0. 0.]
1742665962443520486,1742665962,441744005,imu_link,-0.017578125,0.09808349609375,0.005615234375,0.9949951171875,[0. 0. 0. 0. 0. 0. 0. 0. 0.],0.00390625,0.00390625,0.00390625,[0. 0. 0. 0. 0. 0. 0. 0. 0.],-1.953125,-0.3828125,9.578125,[0. 0. 0. 0. 0. 0. 0. 0. 0.]
1742665962472429320,1742665962,461796598,imu_link,-0.017578125,0.09808349609375,0.005615234375,0.9949951171875,[0. 0. 0. 0. 0. 0. 0. 0. 0.],0.005859375,0.00390625,0.001953125,[0. 0. 0. 0. 0. 0. 0. 0. 0.],-1.9140625,-0.34375,9.578125,[0. 0. 0. 0. 0. 0. 0. 0. 0.]
1742665962487335912,1742665962,483764820,imu_link,-0.01763916015625,0.09857177734375,0.00567626953125,0.99493408203125,[0. 0. 0. 0. 0. 0. 0. 0. 0.],0.005859375,0.00390625,0.001953125,[0. 0. 0. 0. 0. 0. 0. 0. 0.],-1.9140625,-0.34375,9.578125,[0. 0. 0. 0. 0. 0. 0. 0. 0.]
1742665962511699912,1742665962,501776394,imu_link,-0.01763916015625,0.09857177734375,0.00567626953125,0.99493408203125,[0. 0. 0. 0. 0. 0. 0. 0. 0.],-0.001953125,0.001953125,0.001953125,[0. 0. 0. 0. 0. 0. 0. 0. 0.],-1.87890625,-0.34375,9.54296875,[0. 0. 0. 0. 0. 0. 0. 0. 0.]
1742665962534993209,1742665962,521732875,imu_link,-0.017822265625,0.0989990234375,0.0057373046875,0.99493408203125,[0. 0. 0. 0. 0. 0. 0. 0. 0.],-0.001953125,0.001953125,0.001953125,[0. 0. 0. 0. 0. 0. 0. 0. 0.],-1.87890625,-0.34375,9.54296875,[0. 0. 0. 0. 0. 0. 0. 0. 0.]
1742665962543783375,1742665962,541781820,imu_link,-0.017822265625,0.0989990234375,0.0057373046875,0.99493408203125,[0. 0. 0. 0. 0. 0. 0. 0. 0.],-0.001953125,0.001953125,0.001953125,[0. 0. 0. 0. 0. 0. 0. 0. 0.],-1.9140625,-0.26953125,9.5390625,[0. 0. 0. 0. 0. 0. 0. 0. 0.]
1742665962572982116,1742665962,561973894,imu_link,-0.017822265625,0.0989990234375,0.0057373046875,0.99493408203125,[0. 0. 0. 0. 0. 0. 0. 0. 0.],-0.0078125,0.00390625,-0.005859375,[0. 0. 0. 0. 0. 0. 0. 0. 0.],-2.03125,-0.26953125,9.65234375,[0. 0. 0. 0. 0. 0. 0. 0. 0.]
1742665962591594320,1742665962,584846597,imu_link,-0.0179443359375,0.099365234375,0.005615234375,0.994873046875,[0. 0. 0. 0. 0. 0. 0. 0. 0.],-0.0078125,0.00390625,-0.005859375,[0. 0. 0. 0. 0. 0. 0. 0. 0.],-2.03125,-0.3828125,9.578125,[0. 0. 0. 0. 0. 0. 0. 0. 0.]
1742665962607867634,1742665962,601786634,imu_link,-0.0179443359375,0.099365234375,0.005615234375,0.994873046875,[0. 0. 0. 0. 0. 0. 0. 0. 0.],-0.009765625,0.00390625,0.0,[0. 0. 0. 0. 0. 0. 0. 0. 0.],-2.03125,-0.3828125,9.578125,[0. 0. 0. 0. 0. 0. 0. 0. 0.]
1742665962638542857,1742665962,621745838,imu_link,-0.01812744140625,0.09967041015625,0.00555419921875,0.99481201171875,[0. 0. 0. 0. 0. 0. 0. 0. 0.],-0.009765625,0.00390625,0.0,[0. 0. 0. 0. 0. 0. 0. 0. 0.],-1.9921875,-0.3828125,9.5390625,[0. 0. 0. 0. 0. 0. 0. 0. 0.]
1742665962643404783,1742665962,641693505,imu_link,-0.01812744140625,0.09967041015625,0.00555419921875,0.99481201171875,[0. 0. 0. 0. 0. 0. 0. 0. 0.],-0.009765625,0.00390625,0.0,[0. 0. 0. 0. 0. 0. 0. 0. 0.],-1.9921875,-0.3828125,9.5390625,[0. 0. 0. 0. 0. 0. 0. 0. 0.]
1742665962671918449,1742665962,661790264,imu_link,-0.01812744140625,0.09967041015625,0.00555419921875,0.99481201171875,[0. 0. 0. 0. 0. 0. 0. 0. 0.],-0.005859375,0.00390625,-0.001953125,[0. 0. 0. 0. 0. 0. 0. 0. 0.],-2.03125,-0.34375,9.61328125,[0. 0. 0. 0. 0. 0. 0. 0. 0.]
1742665962690296468,1742665962,687537153,imu_link,-0.01824951171875,0.09991455078125,0.005615234375,0.99481201171875,[0. 0. 0. 0. 0. 0. 0. 0. 0.],-0.005859375,0.00390625,-0.001953125,[0. 0. 0. 0. 0. 0. 0. 0. 0.],-1.9921875,-0.34375,9.5390625,[0. 0. 0. 0. 0. 0. 0. 0. 0.]
1742665962709000912,1742665962,701762542,imu_link,-0.01824951171875,0.09991455078125,0.005615234375,0.99481201171875,[0. 0. 0. 0. 0. 0. 0. 0. 0.],-0.005859375,0.001953125,0.0,[0. 0. 0. 0. 0. 0. 0. 0. 0.],-1.9921875,-0.34375,9.5390625,[0. 0. 0. 0. 0. 0. 0. 0. 0.]
1742665962737694449,1742665962,721778097,imu_link,-0.018310546875,0.10009765625,0.005615234375,0.99481201171875,[0. 0. 0. 0. 0. 0. 0. 0. 0.],-0.005859375,0.001953125,0.0,[0. 0. 0. 0. 0. 0. 0. 0. 0.],-1.953125,-0.34375,9.5390625,[0. 0. 0. 0. 0. 0. 0. 0. 0.]
1742665962743800857,1742665962,741777042,imu_link,-0.018310546875,0.10009765625,0.005615234375,0.99481201171875,[0. 0. 0. 0. 0. 0. 0. 0. 0.],-0.005859375,0.001953125,0.0,[0. 0. 0. 0. 0. 0. 0. 0. 0.],-1.953125,-0.34375,9.5390625,[0. 0. 0. 0. 0. 0. 0. 0. 0.]
1742665962768462134,1742665962,761795875,imu_link,-0.018310546875,0.10009765625,0.005615234375,0.99481201171875,[0. 0. 0. 0. 0. 0. 0. 0. 0.],-0.0078125,0.00390625,0.005859375,[0. 0. 0. 0. 0. 0. 0. 0. 0.],-1.953125,-0.34375,9.65234375,[0. 0. 0. 0. 0. 0. 0. 0. 0.]
1742665962795411560,1742665962,781796671,imu_link,-0.018310546875,0.100341796875,0.005615234375,0.9947509765625,[0. 0. 0. 0. 0. 0. 0. 0. 0.],-0.0078125,0.00390625,0.005859375,[0. 0. 0. 0. 0. 0. 0. 0. 0.],-1.9921875,-0.34375,9.4609375,[0. 0. 0. 0. 0. 0. 0. 0. 0.]
1742665962811966301,1742665962,801692764,imu_link,-0.018310546875,0.100341796875,0.005615234375,0.9947509765625,[0. 0. 0. 0. 0. 0. 0. 0. 0.],-0.005859375,0.00390625,0.005859375,[0. 0. 0. 0. 0. 0. 0. 0. 0.],-1.9921875,-0.34375,9.4609375,[0. 0. 0. 0. 0. 0. 0. 0. 0.]
1742665962832400394,1742665962,821728727,imu_link,-0.01824951171875,0.10052490234375,0.0057373046875,0.9947509765625,[0. 0. 0. 0. 0. 0. 0. 0. 0.],-0.005859375,0.00390625,0.005859375,[0. 0. 0. 0. 0. 0. 0. 0. 0.],-1.953125,-0.3828125,9.61328125,[0. 0. 0. 0. 0. 0. 0. 0. 0.]
1742665962848421412,1742665962,841701412,imu_link,-0.01824951171875,0.10052490234375,0.0057373046875,0.9947509765625,[0. 0. 0. 0. 0. 0. 0. 0. 0.],-0.005859375,0.00390625,0.005859375,[0. 0. 0. 0. 0. 0. 0. 0. 0.],-1.953125,-0.3828125,9.65234375,[0. 0. 0. 0. 0. 0. 0. 0. 0.]
1742665962869245820,1742665962,861795523,imu_link,-0.01824951171875,0.10052490234375,0.0057373046875,0.9947509765625,[0. 0. 0. 0. 0. 0. 0. 0. 0.],-0.00390625,0.005859375,0.01171875,[0. 0. 0. 0. 0. 0. 0. 0. 0.],-1.953125,-0.3828125,9.65234375,[0. 0. 0. 0. 0. 0. 0. 0. 0.]
1742665962888857486,1742665962,885485986,imu_link,-0.0181884765625,0.10076904296875,0.0059814453125,0.9947509765625,[0. 0. 0. 0. 0. 0. 0. 0. 0.],-0.00390625,0.005859375,0.01171875,[0. 0. 0. 0. 0. 0. 0. 0. 0.],-1.953125,-0.3828125,9.5,[0. 0. 0. 0. 0. 0. 0. 0. 0.]
1742665962911503560,1742665962,901753690,imu_link,-0.0181884765625,0.10076904296875,0.0059814453125,0.9947509765625,[0. 0. 0. 0. 0. 0. 0. 0. 0.],-0.00390625,0.005859375,0.00390625,[0. 0. 0. 0. 0. 0. 0. 0. 0.],-1.9140625,-0.3046875,9.609375,[0. 0. 0. 0. 0. 0. 0. 0. 0.]
1742665962933240838,1742665962,921795005,imu_link,-0.0181884765625,0.1009521484375,0.00604248046875,0.99468994140625,[0. 0. 0. 0. 0. 0. 0. 0. 0.],-0.00390625,0.005859375,0.00390625,[0. 0. 0. 0. 0. 0. 0. 0. 0.],-1.9140625,-0.3046875,9.609375,[0. 0. 0. 0. 0. 0. 0. 0. 0.]
1742665962944668079,1742665962,941710542,imu_link,-0.0181884765625,0.1009521484375,0.00604248046875,0.99468994140625,[0. 0. 0. 0. 0. 0. 0. 0. 0.],-0.00390625,0.005859375,0.00390625,[0. 0. 0. 0. 0. 0. 0. 0. 0.],-1.87890625,-0.3046875,9.5390625,[0. 0. 0. 0. 0. 0. 0. 0. 0.]
1742665962972120782,1742665962,961791245,imu_link,-0.0181884765625,0.1009521484375,0.00604248046875,0.99468994140625,[0. 0. 0. 0. 0. 0. 0. 0. 0.],0.0,0.001953125,0.005859375,[0. 0. 0. 0. 0. 0. 0. 0. 0.],-1.87890625,-0.3046875,9.61328125,[0. 0. 0. 0. 0. 0. 0. 0. 0.]
1742665962987385875,1742665962,983983690,imu_link,-0.01824951171875,0.10107421875,0.00616455078125,0.99468994140625,[0. 0. 0. 0. 0. 0. 0. 0. 0.],0.0,0.001953125,0.005859375,[0. 0. 0. 0. 0. 0. 0. 0. 0.],-1.87890625,-0.3046875,9.61328125,[0. 0. 0. 0. 0. 0. 0. 0. 0.]
1742665963012289764,1742665963,1757579,imu_link,-0.01824951171875,0.10107421875,0.00616455078125,0.99468994140625,[0. 0. 0. 0. 0. 0. 0. 0. 0.],0.0,0.005859375,0.0,[0. 0. 0. 0. 0. 0. 0. 0. 0.],-2.03125,-0.3046875,9.58203125,[0. 0. 0. 0. 0. 0. 0. 0. 0.]
1742665963037072579,1742665963,21708653,imu_link,-0.018310546875,0.1011962890625,0.00628662109375,0.99468994140625,[0. 0. 0. 0. 0. 0. 0. 0. 0.],0.0,0.005859375,0.0,[0. 0. 0. 0. 0. 0. 0. 0. 0.],-2.10546875,-0.3046875,9.61328125,[0. 0. 0. 0. 0. 0. 0. 0. 0.]
1742665963044855393,1742665963,41758301,imu_link,-0.018310546875,0.1011962890625,0.00628662109375,0.99468994140625,[0. 0. 0. 0. 0. 0. 0. 0. 0.],0.0,0.005859375,0.0,[0. 0. 0. 0. 0. 0. 0. 0. 0.],-2.10546875,-0.3046875,9.61328125,[0. 0. 0. 0. 0. 0. 0. 0. 0.]
1742665963082766171,1742665963,61965449,imu_link,-0.0184326171875,0.101318359375,0.006103515625,0.99468994140625,[0. 0. 0. 0. 0. 0. 0. 0. 0.],0.0,0.0078125,-0.009765625,[0. 0. 0. 0. 0. 0. 0. 0. 0.],-2.0703125,-0.34375,9.54296875,[0. 0. 0. 0. 0. 0. 0. 0. 0.]
1742665963088559319,1742665963,85224801,imu_link,-0.0184326171875,0.101318359375,0.006103515625,0.99468994140625,[0. 0. 0. 0. 0. 0. 0. 0. 0.],0.0,0.0078125,-0.009765625,[0. 0. 0. 0. 0. 0. 0. 0. 0.],-2.0703125,-0.34375,9.54296875,[0. 0. 0. 0. 0. 0. 0. 0. 0.]
1742665963112357208,1742665963,101806930,imu_link,-0.0184326171875,0.101318359375,0.006103515625,0.99468994140625,[0. 0. 0. 0. 0. 0. 0. 0. 0.],0.0,0.00390625,0.0,[0. 0. 0. 0. 0. 0. 0. 0. 0.],-2.03125,-0.3828125,9.5,[0. 0. 0. 0. 0. 0. 0. 0. 0.]
1742665963135956764,1742665963,121721949,imu_link,-0.01849365234375,0.1014404296875,0.006103515625,0.99462890625,[0. 0. 0. 0. 0. 0. 0. 0. 0.],0.0,0.00390625,0.0,[0. 0. 0. 0. 0. 0. 0. 0. 0.],-1.9921875,-0.34375,9.61328125,[0. 0. 0. 0. 0. 0. 0. 0. 0.]
1742665963144849486,1742665963,141749264,imu_link,-0.01849365234375,0.1014404296875,0.006103515625,0.99462890625,[0. 0. 0. 0. 0. 0. 0. 0. 0.],0.0,0.00390625,0.0,[0. 0. 0. 0. 0. 0. 0. 0. 0.],-1.9921875,-0.34375,9.61328125,[0. 0. 0. 0. 0. 0. 0. 0. 0.]
1742665963181085153,1742665963,161746412,imu_link,-0.01849365234375,0.10162353515625,0.00604248046875,0.99462890625,[0. 0. 0. 0. 0. 0. 0. 0. 0.],0.0,0.00390625,-0.00390625,[0. 0. 0. 0. 0. 0. 0. 0. 0.],-1.953125,-0.34375,9.5390625,[0. 0. 0. 0. 0. 0. 0. 0. 0.]
1742665963185397208,1742665963,182691375,imu_link,-0.01849365234375,0.10162353515625,0.00604248046875,0.99462890625,[0. 0. 0. 0. 0. 0. 0. 0. 0.],0.0,0.00390625,-0.00390625,[0. 0. 0. 0. 0. 0. 0. 0. 0.],-1.953125,-0.34375,9.5390625,[0. 0. 0. 0. 0. 0. 0. 0. 0.]
1742665963209910023,1742665963,201915856,imu_link,-0.01849365234375,0.10162353515625,0.00604248046875,0.99462890625,[0. 0. 0. 0. 0. 0. 0. 0. 0.],0.00390625,0.0,-0.001953125,[0. 0. 0. 0. 0. 0. 0. 0. 0.],-1.9921875,-0.34375,9.5390625,[0. 0. 0. 0. 0. 0. 0. 0. 0.]
1742665963235905004,1742665963,221743671,imu_link,-0.0184326171875,0.10174560546875,0.0059814453125,0.99462890625,[0. 0. 0. 0. 0. 0. 0. 0. 0.],0.00390625,0.0,-0.001953125,[0. 0. 0. 0. 0. 0. 0. 0. 0.],-1.953125,-0.34375,9.578125,[0. 0. 0. 0. 0. 0. 0. 0. 0.]
1742665963245804171,1742665963,241801523,imu_link,-0.0184326171875,0.10174560546875,0.0059814453125,0.99462890625,[0. 0. 0. 0. 0. 0. 0. 0. 0.],0.00390625,0.0,-0.001953125,[0. 0. 0. 0. 0. 0. 0. 0. 0.],-1.953125,-0.34375,9.578125,[0. 0. 0. 0. 0. 0. 0. 0. 0.]
1742665963281735319,1742665963,261770634,imu_link,-0.01837158203125,0.101806640625,0.005859375,0.99462890625,[0. 0. 0. 0. 0. 0. 0. 0. 0.],0.00390625,0.0,-0.0078125,[0. 0. 0. 0. 0. 0. 0. 0. 0.],-1.9921875,-0.3046875,9.54296875,[0. 0. 0. 0. 0. 0. 0. 0. 0.]
1742665963291380227,1742665963,289255782,imu_link,-0.01837158203125,0.101806640625,0.005859375,0.99462890625,[0. 0. 0. 0. 0. 0. 0. 0. 0.],0.00390625,0.0,-0.0078125,[0. 0. 0. 0. 0. 0. 0. 0. 0.],-1.953125,-0.3828125,9.5390625,[0. 0. 0. 0. 0. 0. 0. 0. 0.]
1742665963309946004,1742665963,301781116,imu_link,-0.01837158203125,0.101806640625,0.005859375,0.99462890625,[0. 0. 0. 0. 0. 0. 0. 0. 0.],0.0,0.001953125,0.00390625,[0. 0. 0. 0. 0. 0. 0. 0. 0.],-1.953125,-0.3828125,9.5390625,[0. 0. 0. 0. 0. 0. 0. 0. 0.]
1742665963335959356,1742665963,321737486,imu_link,-0.01837158203125,0.1019287109375,0.005859375,0.99462890625,[0. 0. 0. 0. 0. 0. 0. 0. 0.],0.0,0.001953125,0.00390625,[0. 0. 0. 0. 0. 0. 0. 0. 0.],-1.9921875,-0.3828125,9.65234375,[0. 0. 0. 0. 0. 0. 0. 0. 0.]
1742665963349228245,1742665963,341741893,imu_link,-0.01837158203125,0.1019287109375,0.005859375,0.99462890625,[0. 0. 0. 0. 0. 0. 0. 0. 0.],0.0,0.001953125,0.00390625,[0. 0. 0. 0. 0. 0. 0. 0. 0.],-1.9921875,-0.3828125,9.65234375,[0. 0. 0. 0. 0. 0. 0. 0. 0.]
1742665963369741671,1742665963,361740727,imu_link,-0.01837158203125,0.1019287109375,0.005859375,0.99462890625,[0. 0. 0. 0. 0. 0. 0. 0. 0.],0.0,0.00390625,-0.001953125,[0. 0. 0. 0. 0. 0. 0. 0. 0.],-2.03125,-0.34375,9.5390625,[0. 0. 0. 0. 0. 0. 0. 0. 0.]
1742665963396433245,1742665963,381794912,imu_link,-0.01837158203125,0.10211181640625,0.00579833984375,0.99456787109375,[0. 0. 0. 0. 0. 0. 0. 0. 0.],0.0,0.00390625,-0.001953125,[0. 0. 0. 0. 0. 0. 0. 0. 0.],-1.953125,-0.3046875,9.58203125,[0. 0. 0. 0. 0. 0. 0. 0. 0.]
1742665963415428338,1742665963,401705671,imu_link,-0.01837158203125,0.10211181640625,0.00579833984375,0.99456787109375,[0. 0. 0. 0. 0. 0. 0. 0. 0.],-0.00390625,0.001953125,-0.005859375,[0. 0. 0. 0. 0. 0. 0. 0. 0.],-1.953125,-0.3046875,9.609375,[0. 0. 0. 0. 0. 0. 0. 0. 0.]
1742665963445823764,1742665963,423459875,imu_link,-0.01837158203125,0.10223388671875,0.005615234375,0.99456787109375,[0. 0. 0. 0. 0. 0. 0. 0. 0.],-0.00390625,0.001953125,-0.005859375,[0. 0. 0. 0. 0. 0. 0. 0. 0.],-1.953125,-0.34375,9.5390625,[0. 0. 0. 0. 0. 0. 0. 0. 0.]
1742665963456420171,1742665963,448634801,imu_link,-0.01837158203125,0.10223388671875,0.005615234375,0.99456787109375,[0. 0. 0. 0. 0. 0. 0. 0. 0.],-0.00390625,0.001953125,-0.005859375,[0. 0. 0. 0. 0. 0. 0. 0. 0.],-1.953125,-0.34375,9.5390625,[0. 0. 0. 0. 0. 0. 0. 0. 0.]
1742665963467015838,1742665963,463427838,imu_link,-0.01837158203125,0.10223388671875,0.005615234375,0.99456787109375,[0. 0. 0. 0. 0. 0. 0. 0. 0.],0.0,0.001953125,-0.005859375,[0. 0. 0. 0. 0. 0. 0. 0. 0.],-1.953125,-0.34375,9.5390625,[0. 0. 0. 0. 0. 0. 0. 0. 0.]
1742665963498467893,1742665963,482356282,imu_link,-0.01837158203125,0.10235595703125,0.00543212890625,0.99456787109375,[0. 0. 0. 0. 0. 0. 0. 0. 0.],0.0,0.001953125,-0.005859375,[0. 0. 0. 0. 0. 0. 0. 0. 0.],-1.9921875,-0.34375,9.578125,[0. 0. 0. 0. 0. 0. 0. 0. 0.]
1742665963518006319,1742665963,513925634,imu_link,-0.01837158203125,0.10235595703125,0.00543212890625,0.99456787109375,[0. 0. 0. 0. 0. 0. 0. 0. 0.],-0.001953125,0.001953125,-0.0078125,[0. 0. 0. 0. 0. 0. 0. 0. 0.],-2.0703125,-0.34375,9.609375,[0. 0. 0. 0. 0. 0. 0. 0. 0.]
1742665963540854227,1742665963,523853375,imu_link,-0.0184326171875,0.10247802734375,0.00518798828125,0.99456787109375,[0. 0. 0. 0. 0. 0. 0. 0. 0.],-0.001953125,0.001953125,-0.0078125,[0. 0. 0. 0. 0. 0. 0. 0. 0.],-2.0703125,-0.34375,9.58203125,[0. 0. 0. 0. 0. 0. 0. 0. 0.]
1742665963546415393,1742665963,543031467,imu_link,-0.0184326171875,0.10247802734375,0.00518798828125,0.99456787109375,[0. 0. 0. 0. 0. 0. 0. 0. 0.],-0.001953125,0.001953125,-0.0078125,[0. 0. 0. 0. 0. 0. 0. 0. 0.],-2.0703125,-0.34375,9.58203125,[0. 0. 0. 0. 0. 0. 0. 0. 0.]
1742665963580807634,1742665963,561938949,imu_link,-0.0184326171875,0.10247802734375,0.005126953125,0.99456787109375,[0. 0. 0. 0. 0. 0. 0. 0. 0.],0.0,0.001953125,-0.00390625,[0. 0. 0. 0. 0. 0. 0. 0. 0.],-2.0703125,-0.34375,9.54296875,[0. 0. 0. 0. 0. 0. 0. 0. 0.]
1742665963586908226,1742665963,583535801,imu_link,-0.0184326171875,0.10247802734375,0.005126953125,0.99456787109375,[0. 0. 0. 0. 0. 0. 0. 0. 0.],0.0,0.001953125,-0.00390625,[0. 0. 0. 0. 0. 0. 0. 0. 0.],-2.0703125,-0.34375,9.54296875,[0. 0. 0. 0. 0. 0. 0. 0. 0.]
1742665963612651449,1742665963,601803134,imu_link,-0.0184326171875,0.10247802734375,0.005126953125,0.99456787109375,[0. 0. 0. 0. 0. 0. 0. 0. 0.],0.001953125,-0.001953125,-0.00390625,[0. 0. 0. 0. 0. 0. 0. 0. 0.],-2.03125,-0.3828125,9.578125,[0. 0. 0. 0. 0. 0. 0. 0. 0.]
1742665963636469634,1742665963,621693023,imu_link,-0.0184326171875,0.10247802734375,0.0050048828125,0.99456787109375,[0. 0. 0. 0. 0. 0. 0. 0. 0.],0.001953125,-0.001953125,-0.00390625,[0. 0. 0. 0. 0. 0. 0. 0. 0.],-1.9921875,-0.3828125,9.61328125,[0. 0. 0. 0. 0. 0. 0. 0. 0.]
1742665963645321986,1742665963,641696782,imu_link,-0.0184326171875,0.10247802734375,0.0050048828125,0.99456787109375,[0. 0. 0. 0. 0. 0. 0. 0. 0.],0.001953125,-0.001953125,-0.00390625,[0. 0. 0. 0. 0. 0. 0. 0. 0.],-1.9921875,-0.3828125,9.61328125,[0. 0. 0. 0. 0. 0. 0. 0. 0.]
1742665963681155134,1742665963,661738838,imu_link,-0.0184326171875,0.10260009765625,0.00494384765625,0.99456787109375,[0. 0. 0. 0. 0. 0. 0. 0. 0.],0.005859375,0.005859375,-0.001953125,[0. 0. 0. 0. 0. 0. 0. 0. 0.],-1.9921875,-0.3828125,9.578125,[0. 0. 0. 0. 0. 0. 0. 0. 0.]
1742665963687487763,1742665963,684144412,imu_link,-0.0184326171875,0.10260009765625,0.00494384765625,0.99456787109375,[0. 0. 0. 0. 0. 0. 0. 0. 0.],0.005859375,0.005859375,-0.001953125,[0. 0. 0. 0. 0. 0. 0. 0. 0.],-1.9921875,-0.3828125,9.578125,[0. 0. 0. 0. 0. 0. 0. 0. 0.]
1742665963713762041,1742665963,701798115,imu_link,-0.0184326171875,0.10260009765625,0.00494384765625,0.99456787109375,[0. 0. 0. 0. 0. 0. 0. 0. 0.],0.005859375,0.00390625,-0.005859375,[0. 0. 0. 0. 0. 0. 0. 0. 0.],-1.9921875,-0.34375,9.5390625,[0. 0. 0. 0. 0. 0. 0. 0. 0.]
1742665963735177171,1742665963,721706838,imu_link,-0.01837158203125,0.1026611328125,0.00482177734375,0.9945068359375,[0. 0. 0. 0. 0. 0. 0. 0. 0.],0.005859375,0.00390625,-0.005859375,[0. 0. 0. 0. 0. 0. 0. 0. 0.],-1.953125,-0.3046875,9.609375,[0. 0. 0. 0. 0. 0. 0. 0. 0.]
1742665963745288023,1742665963,741779467,imu_link,-0.01837158203125,0.1026611328125,0.00482177734375,0.9945068359375,[0. 0. 0. 0. 0. 0. 0. 0. 0.],0.005859375,0.00390625,-0.005859375,[0. 0. 0. 0. 0. 0. 0. 0. 0.],-1.953125,-0.3046875,9.609375,[0. 0. 0. 0. 0. 0. 0. 0. 0.]
1742665963783862263,1742665963,761760023,imu_link,-0.0184326171875,0.10272216796875,0.0047607421875,0.9945068359375,[0. 0. 0. 0. 0. 0. 0. 0. 0.],0.00390625,0.001953125,0.0,[0. 0. 0. 0. 0. 0. 0. 0. 0.],-1.87890625,-0.34375,9.50390625,[0. 0. 0. 0. 0. 0. 0. 0. 0.]
1742665963791719486,1742665963,785908912,imu_link,-0.0184326171875,0.10272216796875,0.0047607421875,0.9945068359375,[0. 0. 0. 0. 0. 0. 0. 0. 0.],0.00390625,0.001953125,0.0,[0. 0. 0. 0. 0. 0. 0. 0. 0.],-1.953125,-0.34375,9.65234375,[0. 0. 0. 0. 0. 0. 0. 0. 0.]
1742665963809005078,1742665963,801773763,imu_link,-0.0184326171875,0.10272216796875,0.0047607421875,0.9945068359375,[0. 0. 0. 0. 0. 0. 0. 0. 0.],0.0,0.005859375,-0.0078125,[0. 0. 0. 0. 0. 0. 0. 0. 0.],-1.953125,-0.34375,9.65234375,[0. 0. 0. 0. 0. 0. 0. 0. 0.]
1742665963836062263,1742665963,821785152,imu_link,-0.0185546875,0.102783203125,0.00457763671875,0.9945068359375,[0. 0. 0. 0. 0. 0. 0. 0. 0.],0.0,0.005859375,-0.0078125,[0. 0. 0. 0. 0. 0. 0. 0. 0.],-2.03125,-0.34375,9.61328125,[0. 0. 0. 0. 0. 0. 0. 0. 0.]
1742665963845304652,1742665963,841721412,imu_link,-0.0185546875,0.102783203125,0.00457763671875,0.9945068359375,[0. 0. 0. 0. 0. 0. 0. 0. 0.],0.0,0.005859375,-0.0078125,[0. 0. 0. 0. 0. 0. 0. 0. 0.],-2.03125,-0.34375,9.61328125,[0. 0. 0. 0. 0. 0. 0. 0. 0.]
1742665963881490874,1742665963,861786634,imu_link,-0.01861572265625,0.1029052734375,0.00445556640625,0.9945068359375,[0. 0. 0. 0. 0. 0. 0. 0. 0.],0.0,0.0078125,-0.001953125,[0. 0. 0. 0. 0. 0. 0. 0. 0.],-1.953125,-0.3828125,9.5390625,[0. 0. 0. 0. 0. 0. 0. 0. 0.]
1742665963890343782,1742665963,888627819,imu_link,-0.01861572265625,0.1029052734375,0.00445556640625,0.9945068359375,[0. 0. 0. 0. 0. 0. 0. 0. 0.],0.0,0.0078125,-0.001953125,[0. 0. 0. 0. 0. 0. 0. 0. 0.],-2.03125,-0.34375,9.578125,[0. 0. 0. 0. 0. 0. 0. 0. 0.]
1742665963909001060,1742665963,901805208,imu_link,-0.01861572265625,0.1029052734375,0.00445556640625,0.9945068359375,[0. 0. 0. 0. 0. 0. 0. 0. 0.],0.00390625,0.00390625,-0.005859375,[0. 0. 0. 0. 0. 0. 0. 0. 0.],-2.03125,-0.34375,9.578125,[0. 0. 0. 0. 0. 0. 0. 0. 0.]
1742665963936011486,1742665963,921767819,imu_link,-0.0186767578125,0.10296630859375,0.00433349609375,0.9945068359375,[0. 0. 0. 0. 0. 0. 0. 0. 0.],0.00390625,0.00390625,-0.005859375,[0. 0. 0. 0. 0. 0. 0. 0. 0.],-2.10546875,-0.3046875,9.578125,[0. 0. 0. 0. 0. 0. 0. 0. 0.]
1742665963948920652,1742665963,941739986,imu_link,-0.0186767578125,0.10296630859375,0.00433349609375,0.9945068359375,[0. 0. 0. 0. 0. 0. 0. 0. 0.],0.00390625,0.00390625,-0.005859375,[0. 0. 0. 0. 0. 0. 0. 0. 0.],-2.10546875,-0.3046875,9.578125,[0. 0. 0. 0. 0. 0. 0. 0. 0.]
1742665963965185171,1742665963,961771763,imu_link,-0.0186767578125,0.10296630859375,0.00433349609375,0.9945068359375,[0. 0. 0. 0. 0. 0. 0. 0. 0.],0.00390625,0.00390625,-0.0078125,[0. 0. 0. 0. 0. 0. 0. 0. 0.],-2.0703125,-0.3828125,9.54296875,[0. 0. 0. 0. 0. 0. 0. 0. 0.]
1742665963996101504,1742665963,981807541,imu_link,-0.0186767578125,0.10296630859375,0.004150390625,0.9945068359375,[0. 0. 0. 0. 0. 0. 0. 0. 0.],0.00390625,0.00390625,-0.0078125,[0. 0. 0. 0. 0. 0. 0. 0. 0.],-2.03125,-0.3828125,9.578125,[0. 0. 0. 0. 0. 0. 0. 0. 0.]
1742665964013894911,1742665964,1748226,imu_link,-0.0186767578125,0.10296630859375,0.004150390625,0.9945068359375,[0. 0. 0. 0. 0. 0. 0. 0. 0.],-0.001953125,0.001953125,-0.001953125,[0. 0. 0. 0. 0. 0. 0. 0. 0.],-2.0703125,-0.3046875,9.578125,[0. 0. 0. 0. 0. 0. 0. 0. 0.]
1742665964035818597,1742665964,21759097,imu_link,-0.01873779296875,0.10302734375,0.00408935546875,0.9945068359375,[0. 0. 0. 0. 0. 0. 0. 0. 0.],-0.001953125,0.001953125,-0.001953125,[0. 0. 0. 0. 0. 0. 0. 0. 0.],-2.0703125,-0.3046875,9.578125,[0. 0. 0. 0. 0. 0. 0. 0. 0.]
1742665964048598671,1742665964,42054763,imu_link,-0.01873779296875,0.10302734375,0.00408935546875,0.9945068359375,[0. 0. 0. 0. 0. 0. 0. 0. 0.],-0.001953125,0.001953125,-0.001953125,[0. 0. 0. 0. 0. 0. 0. 0. 0.],-2.03125,-0.3828125,9.578125,[0. 0. 0. 0. 0. 0. 0. 0. 0.]
1742665964065385745,1742665964,61784948,imu_link,-0.01873779296875,0.10302734375,0.00408935546875,0.9945068359375,[0. 0. 0. 0. 0. 0. 0. 0. 0.],-0.00390625,0.001953125,-0.00390625,[0. 0. 0. 0. 0. 0. 0. 0. 0.],-2.03125,-0.3828125,9.578125,[0. 0. 0. 0. 0. 0. 0. 0. 0.]
1742665964096430597,1742665964,81828726,imu_link,-0.01885986328125,0.1031494140625,0.00396728515625,0.9945068359375,[0. 0. 0. 0. 0. 0. 0. 0. 0.],-0.00390625,0.001953125,-0.00390625,[0. 0. 0. 0. 0. 0. 0. 0. 0.],-2.03125,-0.3828125,9.578125,[0. 0. 0. 0. 0. 0. 0. 0. 0.]
1742665964112970208,1742665964,101797930,imu_link,-0.01885986328125,0.1031494140625,0.00396728515625,0.9945068359375,[0. 0. 0. 0. 0. 0. 0. 0. 0.],-0.005859375,0.001953125,0.0,[0. 0. 0. 0. 0. 0. 0. 0. 0.],-2.03125,-0.34375,9.5390625,[0. 0. 0. 0. 0. 0. 0. 0. 0.]
1742665964157918948,1742665964,123490059,imu_link,-0.01898193359375,0.10321044921875,0.00396728515625,0.99444580078125,[0. 0. 0. 0. 0. 0. 0. 0. 0.],-0.00390625,0.001953125,-0.0078125,[0. 0. 0. 0. 0. 0. 0. 0. 0.],-2.03125,-0.34375,9.61328125,[0. 0. 0. 0. 0. 0. 0. 0. 0.]
1742665964184802171,1742665964,160070597,imu_link,-0.01904296875,0.103271484375,0.0037841796875,0.99444580078125,[0. 0. 0. 0. 0. 0. 0. 0. 0.],-0.00390625,0.001953125,-0.0078125,[0. 0. 0. 0. 0. 0. 0. 0. 0.],-2.03125,-0.34375,9.61328125,[0. 0. 0. 0. 0. 0. 0. 0. 0.]
1742665964189872596,1742665964,187890171,imu_link,-0.01904296875,0.103271484375,0.0037841796875,0.99444580078125,[0. 0. 0. 0. 0. 0. 0. 0. 0.],-0.00390625,0.001953125,-0.0078125,[0. 0. 0. 0. 0. 0. 0. 0. 0.],-1.9921875,-0.3828125,9.5,[0. 0. 0. 0. 0. 0. 0. 0. 0.]
1742665964215234004,1742665964,203301745,imu_link,-0.01904296875,0.103271484375,0.0037841796875,0.99444580078125,[0. 0. 0. 0. 0. 0. 0. 0. 0.],-0.00390625,-0.00390625,0.005859375,[0. 0. 0. 0. 0. 0. 0. 0. 0.],-1.9140625,-0.3828125,9.61328125,[0. 0. 0. 0. 0. 0. 0. 0. 0.]
1742665964244179948,1742665964,227676300,imu_link,-0.01904296875,0.103271484375,0.00384521484375,0.99444580078125,[0. 0. 0. 0. 0. 0. 0. 0. 0.],-0.00390625,-0.00390625,0.005859375,[0. 0. 0. 0. 0. 0. 0. 0. 0.],-1.953125,-0.34375,9.61328125,[0. 0. 0. 0. 0. 0. 0. 0. 0.]
1742665964248499152,1742665964,246720745,imu_link,-0.01904296875,0.103271484375,0.00384521484375,0.99444580078125,[0. 0. 0. 0. 0. 0. 0. 0. 0.],-0.00390625,-0.00390625,0.005859375,[0. 0. 0. 0. 0. 0. 0. 0. 0.],-1.953125,-0.34375,9.61328125,[0. 0. 0. 0. 0. 0. 0. 0. 0.]
1742665964282874708,1742665964,261753208,imu_link,-0.01910400390625,0.10333251953125,0.00384521484375,0.99444580078125,[0. 0. 0. 0. 0. 0. 0. 0. 0.],-0.005859375,0.001953125,-0.00390625,[0. 0. 0. 0. 0. 0. 0. 0. 0.],-1.9921875,-0.34375,9.578125,[0. 0. 0. 0. 0. 0. 0. 0. 0.]
1742665964288141208,1742665964,286234874,imu_link,-0.01910400390625,0.10333251953125,0.00384521484375,0.99444580078125,[0. 0. 0. 0. 0. 0. 0. 0. 0.],-0.005859375,0.001953125,-0.00390625,[0. 0. 0. 0. 0. 0. 0. 0. 0.],-1.9921875,-0.34375,9.578125,[0. 0. 0. 0. 0. 0. 0. 0. 0.]
1742665964313657152,1742665964,301784208,imu_link,-0.01910400390625,0.10333251953125,0.00384521484375,0.99444580078125,[0. 0. 0. 0. 0. 0. 0. 0. 0.],-0.00390625,0.001953125,-0.001953125,[0. 0. 0. 0. 0. 0. 0. 0. 0.],-1.953125,-0.34375,9.61328125,[0. 0. 0. 0. 0. 0. 0. 0. 0.]
1742665964335779874,1742665964,321733911,imu_link,-0.01910400390625,0.1033935546875,0.0037841796875,0.99444580078125,[0. 0. 0. 0. 0. 0. 0. 0. 0.],-0.00390625,0.001953125,-0.001953125,[0. 0. 0. 0. 0. 0. 0. 0. 0.],-1.9921875,-0.3046875,9.58203125,[0. 0. 0. 0. 0. 0. 0. 0. 0.]
1742665964345274763,1742665964,341773300,imu_link,-0.01910400390625,0.1033935546875,0.0037841796875,0.99444580078125,[0. 0. 0. 0. 0. 0. 0. 0. 0.],-0.00390625,0.001953125,-0.001953125,[0. 0. 0. 0. 0. 0. 0. 0. 0.],-1.9921875,-0.3046875,9.58203125,[0. 0. 0. 0. 0. 0. 0. 0. 0.]
1742665964381296059,1742665964,361768856,imu_link,-0.0191650390625,0.1033935546875,0.003662109375,0.99444580078125,[0. 0. 0. 0. 0. 0. 0. 0. 0.],-0.00390625,0.00390625,-0.005859375,[0. 0. 0. 0. 0. 0. 0. 0. 0.],-2.03125,-0.3046875,9.54296875,[0. 0. 0. 0. 0. 0. 0. 0. 0.]
1742665964390112578,1742665964,383946448,imu_link,-0.0191650390625,0.1033935546875,0.003662109375,0.99444580078125,[0. 0. 0. 0. 0. 0. 0. 0. 0.],-0.00390625,0.00390625,-0.005859375,[0. 0. 0. 0. 0. 0. 0. 0. 0.],-2.03125,-0.3046875,9.54296875,[0. 0. 0. 0. 0. 0. 0. 0. 0.]
1742665964408325152,1742665964,401728078,imu_link,-0.0191650390625,0.1033935546875,0.003662109375,0.99444580078125,[0. 0. 0. 0. 0. 0. 0. 0. 0.],0.0,0.001953125,-0.005859375,[0. 0. 0. 0. 0. 0. 0. 0. 0.],-2.0703125,-0.34375,9.58203125,[0. 0. 0. 0. 0. 0. 0. 0. 0.]
1742665964436387615,1742665964,421798078,imu_link,-0.0191650390625,0.10333251953125,0.0035400390625,0.99444580078125,[0. 0. 0. 0. 0. 0. 0. 0. 0.],0.0,0.001953125,-0.005859375,[0. 0. 0. 0. 0. 0. 0. 0. 0.],-2.0703125,-0.421875,9.578125,[0. 0. 0. 0. 0. 0. 0. 0. 0.]
1742665964445165726,1742665964,441749948,imu_link,-0.0191650390625,0.10333251953125,0.0035400390625,0.99444580078125,[0. 0. 0. 0. 0. 0. 0. 0. 0.],0.0,0.001953125,-0.005859375,[0. 0. 0. 0. 0. 0. 0. 0. 0.],-2.0703125,-0.421875,9.578125,[0. 0. 0. 0. 0. 0. 0. 0. 0.]
1742665964480384930,1742665964,461772559,imu_link,-0.0191650390625,0.10333251953125,0.0035400390625,0.99444580078125,[0. 0. 0. 0. 0. 0. 0. 0. 0.],0.0,0.001953125,0.0,[0. 0. 0. 0. 0. 0. 0. 0. 0.],-2.03125,-0.3828125,9.5,[0. 0. 0. 0. 0. 0. 0. 0. 0.]
1742665964489738541,1742665964,487953559,imu_link,-0.0191650390625,0.10333251953125,0.0035400390625,0.99444580078125,[0. 0. 0. 0. 0. 0. 0. 0. 0.],0.0,0.001953125,0.0,[0. 0. 0. 0. 0. 0. 0. 0. 0.],-2.03125,-0.34375,9.578125,[0. 0. 0. 0. 0. 0. 0. 0. 0.]
1742665964508225226,1742665964,501720559,imu_link,-0.0191650390625,0.10333251953125,0.0035400390625,0.99444580078125,[0. 0. 0. 0. 0. 0. 0. 0. 0.],-0.001953125,0.001953125,-0.01171875,[0. 0. 0. 0. 0. 0. 0. 0. 0.],-2.03125,-0.34375,9.578125,[0. 0. 0. 0. 0. 0. 0. 0. 0.]
1742665964535664837,1742665964,521739467,imu_link,-0.01922607421875,0.103271484375,0.00341796875,0.99444580078125,[0. 0. 0. 0. 0. 0. 0. 0. 0.],-0.001953125,0.001953125,-0.01171875,[0. 0. 0. 0. 0. 0. 0. 0. 0.],-2.03125,-0.3046875,9.58203125,[0. 0. 0. 0. 0. 0. 0. 0. 0.]
1742665964548813374,1742665964,541967911,imu_link,-0.01922607421875,0.103271484375,0.00341796875,0.99444580078125,[0. 0. 0. 0. 0. 0. 0. 0. 0.],-0.001953125,0.001953125,-0.01171875,[0. 0. 0. 0. 0. 0. 0. 0. 0.],-2.03125,-0.3046875,9.58203125,[0. 0. 0. 0. 0. 0. 0. 0. 0.]
1742665964565692818,1742665964,561878337,imu_link,-0.01922607421875,0.103271484375,0.00341796875,0.99444580078125,[0. 0. 0. 0. 0. 0. 0. 0. 0.],-0.00390625,-0.001953125,-0.005859375,[0. 0. 0. 0. 0. 0. 0. 0. 0.],-1.9921875,-0.3828125,9.578125,[0. 0. 0. 0. 0. 0. 0. 0. 0.]
1742665964595859133,1742665964,581733022,imu_link,-0.01934814453125,0.103271484375,0.0032958984375,0.99444580078125,[0. 0. 0. 0. 0. 0. 0. 0. 0.],-0.00390625,-0.001953125,-0.005859375,[0. 0. 0. 0. 0. 0. 0. 0. 0.],-2.0703125,-0.3828125,9.609375,[0. 0. 0. 0. 0. 0. 0. 0. 0.]
1742665964613591244,1742665964,601765893,imu_link,-0.01934814453125,0.103271484375,0.0032958984375,0.99444580078125,[0. 0. 0. 0. 0. 0. 0. 0. 0.],-0.00390625,0.0,-0.005859375,[0. 0. 0. 0. 0. 0. 0. 0. 0.],-2.10546875,-0.34375,9.58203125,[0. 0. 0. 0. 0. 0. 0. 0. 0.]
1742665964635043115,1742665964,621700818,imu_link,-0.01947021484375,0.103271484375,0.003173828125,0.99444580078125,[0. 0. 0. 0. 0. 0. 0. 0. 0.],-0.00390625,0.0,-0.005859375,[0. 0. 0. 0. 0. 0. 0. 0. 0.],-2.10546875,-0.34375,9.58203125,[0. 0. 0. 0. 0. 0. 0. 0. 0.]
1742665964652107837,1742665964,641773522,imu_link,-0.01947021484375,0.103271484375,0.003173828125,0.99444580078125,[0. 0. 0. 0. 0. 0. 0. 0. 0.],-0.00390625,0.0,-0.005859375,[0. 0. 0. 0. 0. 0. 0. 0. 0.],-2.03125,-0.421875,9.50390625,[0. 0. 0. 0. 0. 0. 0. 0. 0.]
1742665964665143559,1742665964,661734115,imu_link,-0.01947021484375,0.103271484375,0.003173828125,0.99444580078125,[0. 0. 0. 0. 0. 0. 0. 0. 0.],0.0,-0.00390625,0.0,[0. 0. 0. 0. 0. 0. 0. 0. 0.],-2.03125,-0.421875,9.50390625,[0. 0. 0. 0. 0. 0. 0. 0. 0.]
1742665964695727411,1742665964,681773170,imu_link,-0.01947021484375,0.103271484375,0.00323486328125,0.99444580078125,[0. 0. 0. 0. 0. 0. 0. 0. 0.],0.0,-0.00390625,0.0,[0. 0. 0. 0. 0. 0. 0. 0. 0.],-1.953125,-0.3828125,9.578125,[0. 0. 0. 0. 0. 0. 0. 0. 0.]
1742665964713417948,1742665964,701883763,imu_link,-0.01947021484375,0.103271484375,0.00323486328125,0.99444580078125,[0. 0. 0. 0. 0. 0. 0. 0. 0.],-0.001953125,-0.00390625,-0.00390625,[0. 0. 0. 0. 0. 0. 0. 0. 0.],-1.9921875,-0.3828125,9.65234375,[0. 0. 0. 0. 0. 0. 0. 0. 0.]
1742665964738331022,1742665964,721721281,imu_link,-0.01953125,0.103271484375,0.003173828125,0.99444580078125,[0. 0. 0. 0. 0. 0. 0. 0. 0.],-0.001953125,-0.00390625,-0.00390625,[0. 0. 0. 0. 0. 0. 0. 0. 0.],-1.9921875,-0.3828125,9.65234375,[0. 0. 0. 0. 0. 0. 0. 0. 0.]
1742665964745083726,1742665964,741715522,imu_link,-0.01953125,0.103271484375,0.003173828125,0.99444580078125,[0. 0. 0. 0. 0. 0. 0. 0. 0.],-0.001953125,-0.00390625,-0.00390625,[0. 0. 0. 0. 0. 0. 0. 0. 0.],-1.9921875,-0.34375,9.5390625,[0. 0. 0. 0. 0. 0. 0. 0. 0.]
1742665964781649652,1742665964,761714911,imu_link,-0.01953125,0.10333251953125,0.0030517578125,0.99444580078125,[0. 0. 0. 0. 0. 0. 0. 0. 0.],-0.001953125,-0.001953125,-0.005859375,[0. 0. 0. 0. 0. 0. 0. 0. 0.],-1.9921875,-0.3046875,9.609375,[0. 0. 0. 0. 0. 0. 0. 0. 0.]
1742665964787066022,1742665964,784470911,imu_link,-0.01953125,0.10333251953125,0.0030517578125,0.99444580078125,[0. 0. 0. 0. 0. 0. 0. 0. 0.],-0.001953125,-0.001953125,-0.005859375,[0. 0. 0. 0. 0. 0. 0. 0. 0.],-1.9921875,-0.3046875,9.609375,[0. 0. 0. 0. 0. 0. 0. 0. 0.]
1742665964814367170,1742665964,802191763,imu_link,-0.01953125,0.10333251953125,0.0030517578125,0.99444580078125,[0. 0. 0. 0. 0. 0. 0. 0. 0.],-0.005859375,-0.00390625,-0.001953125,[0. 0. 0. 0. 0. 0. 0. 0. 0.],-1.9921875,-0.34375,9.578125,[0. 0. 0. 0. 0. 0. 0. 0. 0.]
1742665964837461855,1742665964,821704226,imu_link,-0.01953125,0.10333251953125,0.00299072265625,0.99444580078125,[0. 0. 0. 0. 0. 0. 0. 0. 0.],-0.005859375,-0.00390625,-0.001953125,[0. 0. 0. 0. 0. 0. 0. 0. 0.],-1.9921875,-0.3828125,9.5390625,[0. 0. 0. 0. 0. 0. 0. 0. 0.]
1742665964845301133,1742665964,841736355,imu_link,-0.01953125,0.10333251953125,0.00299072265625,0.99444580078125,[0. 0. 0. 0. 0. 0. 0. 0. 0.],-0.005859375,-0.00390625,-0.001953125,[0. 0. 0. 0. 0. 0. 0. 0. 0.],-1.9921875,-0.3828125,9.5390625,[0. 0. 0. 0. 0. 0. 0. 0. 0.]
1742665964882880670,1742665964,861760874,imu_link,-0.01953125,0.10333251953125,0.0029296875,0.99444580078125,[0. 0. 0. 0. 0. 0. 0. 0. 0.],-0.005859375,-0.00390625,-0.00390625,[0. 0. 0. 0. 0. 0. 0. 0. 0.],-2.03125,-0.421875,9.609375,[0. 0. 0. 0. 0. 0. 0. 0. 0.]
1742665964887223763,1742665964,885476429,imu_link,-0.01953125,0.10333251953125,0.0029296875,0.99444580078125,[0. 0. 0. 0. 0. 0. 0. 0. 0.],-0.005859375,-0.00390625,-0.00390625,[0. 0. 0. 0. 0. 0. 0. 0. 0.],-2.03125,-0.421875,9.609375,[0. 0. 0. 0. 0. 0. 0. 0. 0.]
1742665964913068485,1742665964,901740781,imu_link,-0.01953125,0.10333251953125,0.0029296875,0.99444580078125,[0. 0. 0. 0. 0. 0. 0. 0. 0.],-0.0078125,0.005859375,0.00390625,[0. 0. 0. 0. 0. 0. 0. 0. 0.],-1.9921875,-0.3828125,9.61328125,[0. 0. 0. 0. 0. 0. 0. 0. 0.]
1742665964936069207,1742665964,921754800,imu_link,-0.01947021484375,0.1033935546875,0.00299072265625,0.99444580078125,[0. 0. 0. 0. 0. 0. 0. 0. 0.],-0.0078125,0.005859375,0.00390625,[0. 0. 0. 0. 0. 0. 0. 0. 0.],-2.03125,-0.3046875,9.54296875,[0. 0. 0. 0. 0. 0. 0. 0. 0.]
1742665964945271429,1742665964,941875800,imu_link,-0.01947021484375,0.1033935546875,0.00299072265625,0.99444580078125,[0. 0. 0. 0. 0. 0. 0. 0. 0.],-0.0078125,0.005859375,0.00390625,[0. 0. 0. 0. 0. 0. 0. 0. 0.],-2.03125,-0.3046875,9.54296875,[0. 0. 0. 0. 0. 0. 0. 0. 0.]
1742665964982268874,1742665964,961766837,imu_link,-0.01947021484375,0.10345458984375,0.0029296875,0.99444580078125,[0. 0. 0. 0. 0. 0. 0. 0. 0.],-0.00390625,0.0,-0.001953125,[0. 0. 0. 0. 0. 0. 0. 0. 0.],-1.9921875,-0.3046875,9.58203125,[0. 0. 0. 0. 0. 0. 0. 0. 0.]
1742665964991137077,1742665964,984885522,imu_link,-0.01947021484375,0.10345458984375,0.0029296875,0.99444580078125,[0. 0. 0. 0. 0. 0. 0. 0. 0.],-0.00390625,0.0,-0.001953125,[0. 0. 0. 0. 0. 0. 0. 0. 0.],-1.9921875,-0.34375,9.578125,[0. 0. 0. 0. 0. 0. 0. 0. 0.]
1742665965008237837,1742665965,1716207,imu_link,-0.01947021484375,0.10345458984375,0.0029296875,0.99444580078125,[0. 0. 0. 0. 0. 0. 0. 0. 0.],-0.00390625,-0.00390625,-0.00390625,[0. 0. 0. 0. 0. 0. 0. 0. 0.],-1.9921875,-0.34375,9.578125,[0. 0. 0. 0. 0. 0. 0. 0. 0.]
1742665965035448466,1742665965,21783577,imu_link,-0.01953125,0.1033935546875,0.00274658203125,0.99444580078125,[0. 0. 0. 0. 0. 0. 0. 0. 0.],-0.00390625,-0.00390625,-0.00390625,[0. 0. 0. 0. 0. 0. 0. 0. 0.],-1.9921875,-0.3828125,9.5,[0. 0. 0. 0. 0. 0. 0. 0. 0.]
1742665965045131244,1742665965,41754374,imu_link,-0.01953125,0.1033935546875,0.00274658203125,0.99444580078125,[0. 0. 0. 0. 0. 0. 0. 0. 0.],-0.00390625,-0.00390625,-0.00390625,[0. 0. 0. 0. 0. 0. 0. 0. 0.],-1.9921875,-0.3828125,9.5,[0. 0. 0. 0. 0. 0. 0. 0. 0.]
1742665965085784485,1742665965,61789392,imu_link,-0.01953125,0.10333251953125,0.002685546875,0.99444580078125,[0. 0. 0. 0. 0. 0. 0. 0. 0.],-0.001953125,0.001953125,-0.001953125,[0. 0. 0. 0. 0. 0. 0. 0. 0.],-2.0703125,-0.421875,9.61328125,[0. 0. 0. 0. 0. 0. 0. 0. 0.]
1742665965090361689,1742665965,87392614,imu_link,-0.01953125,0.10333251953125,0.002685546875,0.99444580078125,[0. 0. 0. 0. 0. 0. 0. 0. 0.],-0.001953125,0.001953125,-0.001953125,[0. 0. 0. 0. 0. 0. 0. 0. 0.],-2.10546875,-0.4609375,9.58203125,[0. 0. 0. 0. 0. 0. 0. 0. 0.]
1742665965108385059,1742665965,101768633,imu_link,-0.01953125,0.10333251953125,0.002685546875,0.99444580078125,[0. 0. 0. 0. 0. 0. 0. 0. 0.],0.0,-0.001953125,0.0078125,[0. 0. 0. 0. 0. 0. 0. 0. 0.],-2.10546875,-0.4609375,9.58203125,[0. 0. 0. 0. 0. 0. 0. 0. 0.]
1742665965135718707,1742665965,121709429,imu_link,-0.01947021484375,0.103271484375,0.00286865234375,0.99444580078125,[0. 0. 0. 0. 0. 0. 0. 0. 0.],0.0,-0.001953125,0.0078125,[0. 0. 0. 0. 0. 0. 0. 0. 0.],-2.0703125,-0.421875,9.5,[0. 0. 0. 0. 0. 0. 0. 0. 0.]
1742665965148088522,1742665965,141735355,imu_link,-0.01947021484375,0.103271484375,0.00286865234375,0.99444580078125,[0. 0. 0. 0. 0. 0. 0. 0. 0.],0.0,-0.001953125,0.0078125,[0. 0. 0. 0. 0. 0. 0. 0. 0.],-2.0703125,-0.421875,9.5,[0. 0. 0. 0. 0. 0. 0. 0. 0.]
1742665965165149263,1742665965,161704392,imu_link,-0.01947021484375,0.103271484375,0.00286865234375,0.99444580078125,[0. 0. 0. 0. 0. 0. 0. 0. 0.],0.00390625,-0.001953125,0.0078125,[0. 0. 0. 0. 0. 0. 0. 0. 0.],-2.03125,-0.3828125,9.578125,[0. 0. 0. 0. 0. 0. 0. 0. 0.]
1742665965195189392,1742665965,181794744,imu_link,-0.01934814453125,0.10321044921875,0.0030517578125,0.99444580078125,[0. 0. 0. 0. 0. 0. 0. 0. 0.],0.00390625,-0.001953125,0.0078125,[0. 0. 0. 0. 0. 0. 0. 0. 0.],-1.953125,-0.3046875,9.609375,[0. 0. 0. 0. 0. 0. 0. 0. 0.]
1742665965213447929,1742665965,201904540,imu_link,-0.01934814453125,0.10321044921875,0.0030517578125,0.99444580078125,[0. 0. 0. 0. 0. 0. 0. 0. 0.],0.009765625,-0.001953125,0.005859375,[0. 0. 0. 0. 0. 0. 0. 0. 0.],-1.953125,-0.34375,9.5390625,[0. 0. 0. 0. 0. 0. 0. 0. 0.]
1742665965234780763,1742665965,221726133,imu_link,-0.01922607421875,0.10308837890625,0.003173828125,0.9945068359375,[0. 0. 0. 0. 0. 0. 0. 0. 0.],0.009765625,-0.001953125,0.005859375,[0. 0. 0. 0. 0. 0. 0. 0. 0.],-1.953125,-0.34375,9.5390625,[0. 0. 0. 0. 0. 0. 0. 0. 0.]
1742665965252171929,1742665965,242006744,imu_link,-0.01922607421875,0.10308837890625,0.003173828125,0.9945068359375,[0. 0. 0. 0. 0. 0. 0. 0. 0.],0.009765625,-0.001953125,0.005859375,[0. 0. 0. 0. 0. 0. 0. 0. 0.],-1.953125,-0.3828125,9.578125,[0. 0. 0. 0. 0. 0. 0. 0. 0.]
1742665965265210707,1742665965,261737207,imu_link,-0.01922607421875,0.10308837890625,0.003173828125,0.9945068359375,[0. 0. 0. 0. 0. 0. 0. 0. 0.],0.01171875,0.00390625,0.0078125,[0. 0. 0. 0. 0. 0. 0. 0. 0.],-1.953125,-0.3828125,9.578125,[0. 0. 0. 0. 0. 0. 0. 0. 0.]
1742665965295116318,1742665965,281794429,imu_link,-0.01910400390625,0.10308837890625,0.0032958984375,0.9945068359375,[0. 0. 0. 0. 0. 0. 0. 0. 0.],0.01171875,0.00390625,0.0078125,[0. 0. 0. 0. 0. 0. 0. 0. 0.],-1.953125,-0.3828125,9.61328125,[0. 0. 0. 0. 0. 0. 0. 0. 0.]
1742665965313359540,1742665965,301699503,imu_link,-0.01910400390625,0.10308837890625,0.0032958984375,0.9945068359375,[0. 0. 0. 0. 0. 0. 0. 0. 0.],0.01171875,0.001953125,0.005859375,[0. 0. 0. 0. 0. 0. 0. 0. 0.],-1.9921875,-0.3828125,9.5,[0. 0. 0. 0. 0. 0. 0. 0. 0.]
1742665965337207040,1742665965,321719837,imu_link,-0.01904296875,0.10308837890625,0.00347900390625,0.9945068359375,[0. 0. 0. 0. 0. 0. 0. 0. 0.],0.01171875,0.001953125,0.005859375,[0. 0. 0. 0. 0. 0. 0. 0. 0.],-1.9921875,-0.3828125,9.5,[0. 0. 0. 0. 0. 0. 0. 0. 0.]
1742665965345299855,1742665965,341764855,imu_link,-0.01904296875,0.10308837890625,0.00347900390625,0.9945068359375,[0. 0. 0. 0. 0. 0. 0. 0. 0.],0.01171875,0.001953125,0.005859375,[0. 0. 0. 0. 0. 0. 0. 0. 0.],-1.9921875,-0.34375,9.61328125,[0. 0. 0. 0. 0. 0. 0. 0. 0.]
1742665965381709411,1742665965,361778818,imu_link,-0.01904296875,0.10308837890625,0.0035400390625,0.9945068359375,[0. 0. 0. 0. 0. 0. 0. 0. 0.],0.005859375,0.001953125,0.00390625,[0. 0. 0. 0. 0. 0. 0. 0. 0.],-2.03125,-0.26953125,9.61328125,[0. 0. 0. 0. 0. 0. 0. 0. 0.]
1742665965386084818,1742665965,384306614,imu_link,-0.01904296875,0.10308837890625,0.0035400390625,0.9945068359375,[0. 0. 0. 0. 0. 0. 0. 0. 0.],0.005859375,0.001953125,0.00390625,[0. 0. 0. 0. 0. 0. 0. 0. 0.],-2.03125,-0.26953125,9.61328125,[0. 0. 0. 0. 0. 0. 0. 0. 0.]
1742665965413039448,1742665965,401744374,imu_link,-0.01904296875,0.10308837890625,0.0035400390625,0.9945068359375,[0. 0. 0. 0. 0. 0. 0. 0. 0.],0.005859375,-0.001953125,-0.01171875,[0. 0. 0. 0. 0. 0. 0. 0. 0.],-2.03125,-0.3046875,9.50390625,[0. 0. 0. 0. 0. 0. 0. 0. 0.]
1742665965437323707,1742665965,421766262,imu_link,-0.01904296875,0.10302734375,0.0032958984375,0.9945068359375,[0. 0. 0. 0. 0. 0. 0. 0. 0.],0.005859375,-0.001953125,-0.01171875,[0. 0. 0. 0. 0. 0. 0. 0. 0.],-1.9921875,-0.34375,9.5390625,[0. 0. 0. 0. 0. 0. 0. 0. 0.]
1742665965444618911,1742665965,441873614,imu_link,-0.01904296875,0.10302734375,0.0032958984375,0.9945068359375,[0. 0. 0. 0. 0. 0. 0. 0. 0.],0.005859375,-0.001953125,-0.01171875,[0. 0. 0. 0. 0. 0. 0. 0. 0.],-1.9921875,-0.34375,9.5390625,[0. 0. 0. 0. 0. 0. 0. 0. 0.]
1742665965481904336,1742665965,461773818,imu_link,-0.0189208984375,0.10296630859375,0.00323486328125,0.9945068359375,[0. 0. 0. 0. 0. 0. 0. 0. 0.],0.009765625,0.0,-0.00390625,[0. 0. 0. 0. 0. 0. 0. 0. 0.],-2.0703125,-0.3828125,9.6484375,[0. 0. 0. 0. 0. 0. 0. 0. 0.]
1742665965486466059,1742665965,484482670,imu_link,-0.0189208984375,0.10296630859375,0.00323486328125,0.9945068359375,[0. 0. 0. 0. 0. 0. 0. 0. 0.],0.009765625,0.0,-0.00390625,[0. 0. 0. 0. 0. 0. 0. 0. 0.],-2.0703125,-0.3828125,9.6484375,[0. 0. 0. 0. 0. 0. 0. 0. 0.]
1742665965512481929,1742665965,501770948,imu_link,-0.0189208984375,0.10296630859375,0.00323486328125,0.9945068359375,[0. 0. 0. 0. 0. 0. 0. 0. 0.],0.0078125,-0.001953125,-0.005859375,[0. 0. 0. 0. 0. 0. 0. 0. 0.],-2.0703125,-0.421875,9.5390625,[0. 0. 0. 0. 0. 0. 0. 0. 0.]
1742665965534949244,1742665965,521756522,imu_link,-0.01885986328125,0.10296630859375,0.00311279296875,0.9945068359375,[0. 0. 0. 0. 0. 0. 0. 0. 0.],0.0078125,-0.001953125,-0.005859375,[0. 0. 0. 0. 0. 0. 0. 0. 0.],-2.0703125,-0.3828125,9.609375,[0. 0. 0. 0. 0. 0. 0. 0. 0.]
1742665965544709336,1742665965,541955948,imu_link,-0.01885986328125,0.10296630859375,0.00311279296875,0.9945068359375,[0. 0. 0. 0. 0. 0. 0. 0. 0.],0.0078125,-0.001953125,-0.005859375,[0. 0. 0. 0. 0. 0. 0. 0. 0.],-2.0703125,-0.3828125,9.609375,[0. 0. 0. 0. 0. 0. 0. 0. 0.]
1742665965581704151,1742665965,561756244,imu_link,-0.01873779296875,0.10296630859375,0.003173828125,0.9945068359375,[0. 0. 0. 0. 0. 0. 0. 0. 0.],0.0078125,0.0,0.0078125,[0. 0. 0. 0. 0. 0. 0. 0. 0.],-2.03125,-0.3828125,9.61328125,[0. 0. 0. 0. 0. 0. 0. 0. 0.]
1742665965586001633,1742665965,584318892,imu_link,-0.01873779296875,0.10296630859375,0.003173828125,0.9945068359375,[0. 0. 0. 0. 0. 0. 0. 0. 0.],0.0078125,0.0,0.0078125,[0. 0. 0. 0. 0. 0. 0. 0. 0.],-2.03125,-0.3828125,9.61328125,[0. 0. 0. 0. 0. 0. 0. 0. 0.]
1742665965612440910,1742665965,601772540,imu_link,-0.01873779296875,0.10296630859375,0.003173828125,0.9945068359375,[0. 0. 0. 0. 0. 0. 0. 0. 0.],-0.001953125,-0.001953125,0.001953125,[0. 0. 0. 0. 0. 0. 0. 0. 0.],-1.9921875,-0.34375,9.5390625,[0. 0. 0. 0. 0. 0. 0. 0. 0.]
1742665965635091559,1742665965,621710725,imu_link,-0.01873779296875,0.10296630859375,0.0032958984375,0.9945068359375,[0. 0. 0. 0. 0. 0. 0. 0. 0.],-0.001953125,-0.001953125,0.001953125,[0. 0. 0. 0. 0. 0. 0. 0. 0.],-1.953125,-0.3046875,9.58203125,[0. 0. 0. 0. 0. 0. 0. 0. 0.]
1742665965644547855,1742665965,641734188,imu_link,-0.01873779296875,0.10296630859375,0.0032958984375,0.9945068359375,[0. 0. 0. 0. 0. 0. 0. 0. 0.],-0.001953125,-0.001953125,0.001953125,[0. 0. 0. 0. 0. 0. 0. 0. 0.],-1.953125,-0.3046875,9.58203125,[0. 0. 0. 0. 0. 0. 0. 0. 0.]
1742665965686249725,1742665965,661748373,imu_link,-0.01873779296875,0.10296630859375,0.00323486328125,0.9945068359375,[0. 0. 0. 0. 0. 0. 0. 0. 0.],0.0,-0.00390625,-0.001953125,[0. 0. 0. 0. 0. 0. 0. 0. 0.],-1.9140625,-0.34375,9.61328125,[0. 0. 0. 0. 0. 0. 0. 0. 0.]
1742665965691174707,1742665965,687840262,imu_link,-0.01873779296875,0.10296630859375,0.00323486328125,0.9945068359375,[0. 0. 0. 0. 0. 0. 0. 0. 0.],0.0,-0.00390625,-0.001953125,[0. 0. 0. 0. 0. 0. 0. 0. 0.],-1.953125,-0.34375,9.5390625,[0. 0. 0. 0. 0. 0. 0. 0. 0.]
1742665965707917207,1742665965,701899633,imu_link,-0.01873779296875,0.10296630859375,0.00323486328125,0.9945068359375,[0. 0. 0. 0. 0. 0. 0. 0. 0.],0.001953125,-0.00390625,0.0,[0. 0. 0. 0. 0. 0. 0. 0. 0.],-1.953125,-0.34375,9.5390625,[0. 0. 0. 0. 0. 0. 0. 0. 0.]
1742665965734605614,1742665965,721757984,imu_link,-0.01861572265625,0.1029052734375,0.0032958984375,0.9945068359375,[0. 0. 0. 0. 0. 0. 0. 0. 0.],0.001953125,-0.00390625,0.0,[0. 0. 0. 0. 0. 0. 0. 0. 0.],-1.9921875,-0.34375,9.578125,[0. 0. 0. 0. 0. 0. 0. 0. 0.]
1742665965752882484,1742665965,741756855,imu_link,-0.01861572265625,0.1029052734375,0.0032958984375,0.9945068359375,[0. 0. 0. 0. 0. 0. 0. 0. 0.],0.001953125,-0.00390625,0.0,[0. 0. 0. 0. 0. 0. 0. 0. 0.],-1.9921875,-0.34375,9.578125,[0. 0. 0. 0. 0. 0. 0. 0. 0.]
1742665965764578151,1742665965,761707410,imu_link,-0.01861572265625,0.1029052734375,0.0032958984375,0.9945068359375,[0. 0. 0. 0. 0. 0. 0. 0. 0.],0.001953125,-0.005859375,-0.00390625,[0. 0. 0. 0. 0. 0. 0. 0. 0.],-2.03125,-0.34375,9.578125,[0. 0. 0. 0. 0. 0. 0. 0. 0.]
1742665965794475447,1742665965,781777151,imu_link,-0.01849365234375,0.102783203125,0.003173828125,0.9945068359375,[0. 0. 0. 0. 0. 0. 0. 0. 0.],0.001953125,-0.005859375,-0.00390625,[0. 0. 0. 0. 0. 0. 0. 0. 0.],-1.9921875,-0.3828125,9.5,[0. 0. 0. 0. 0. 0. 0. 0. 0.]
1742665965807548855,1742665965,801702077,imu_link,-0.01849365234375,0.102783203125,0.003173828125,0.9945068359375,[0. 0. 0. 0. 0. 0. 0. 0. 0.],0.0,-0.00390625,0.00390625,[0. 0. 0. 0. 0. 0. 0. 0. 0.],-1.9921875,-0.3828125,9.5,[0. 0. 0. 0. 0. 0. 0. 0. 0.]
1742665965834354725,1742665965,821777318,imu_link,-0.01837158203125,0.1026611328125,0.003173828125,0.99456787109375,[0. 0. 0. 0. 0. 0. 0. 0. 0.],0.0,-0.00390625,0.00390625,[0. 0. 0. 0. 0. 0. 0. 0. 0.],-1.9921875,-0.34375,9.6875,[0. 0. 0. 0. 0. 0. 0. 0. 0.]
1742665965852592725,1742665965,841787188,imu_link,-0.01837158203125,0.1026611328125,0.003173828125,0.99456787109375,[0. 0. 0. 0. 0. 0. 0. 0. 0.],0.005859375,-0.00390625,-0.009765625,[0. 0. 0. 0. 0. 0. 0. 0. 0.],-2.10546875,-0.3046875,9.5390625,[0. 0. 0. 0. 0. 0. 0. 0. 0.]
1742665965864668336,1742665965,861793558,imu_link,-0.01837158203125,0.1026611328125,0.003173828125,0.99456787109375,[0. 0. 0. 0. 0. 0. 0. 0. 0.],0.005859375,-0.00390625,-0.009765625,[0. 0. 0. 0. 0. 0. 0. 0. 0.],-2.10546875,-0.3046875,9.5390625,[0. 0. 0. 0. 0. 0. 0. 0. 0.]
1742665965895100281,1742665965,881954688,imu_link,-0.01824951171875,0.10260009765625,0.00299072265625,0.99456787109375,[0. 0. 0. 0. 0. 0. 0. 0. 0.],0.005859375,-0.00390625,-0.009765625,[0. 0. 0. 0. 0. 0. 0. 0. 0.],-2.03125,-0.34375,9.5390625,[0. 0. 0. 0. 0. 0. 0. 0. 0.]
1742665965912343058,1742665965,901703373,imu_link,-0.01824951171875,0.10260009765625,0.00299072265625,0.99456787109375,[0. 0. 0. 0. 0. 0. 0. 0. 0.],0.00390625,-0.001953125,-0.001953125,[0. 0. 0. 0. 0. 0. 0. 0. 0.],-1.953125,-0.3828125,9.61328125,[0. 0. 0. 0. 0. 0. 0. 0. 0.]
1742665965936965132,1742665965,921802021,imu_link,-0.01812744140625,0.1025390625,0.00286865234375,0.99456787109375,[0. 0. 0. 0. 0. 0. 0. 0. 0.],0.00390625,-0.001953125,-0.001953125,[0. 0. 0. 0. 0. 0. 0. 0. 0.],-1.953125,-0.3828125,9.61328125,[0. 0. 0. 0. 0. 0. 0. 0. 0.]
1742665965944490929,1742665965,941732077,imu_link,-0.01812744140625,0.1025390625,0.00286865234375,0.99456787109375,[0. 0. 0. 0. 0. 0. 0. 0. 0.],0.00390625,-0.001953125,-0.001953125,[0. 0. 0. 0. 0. 0. 0. 0. 0.],-1.9921875,-0.421875,9.54296875,[0. 0. 0. 0. 0. 0. 0. 0. 0.]
1742665965978139410,1742665965,961776799,imu_link,-0.0179443359375,0.1025390625,0.0028076171875,0.99456787109375,[0. 0. 0. 0. 0. 0. 0. 0. 0.],0.0078125,-0.001953125,-0.001953125,[0. 0. 0. 0. 0. 0. 0. 0. 0.],-1.9921875,-0.421875,9.54296875,[0. 0. 0. 0. 0. 0. 0. 0. 0.]
1742665965984423725,1742665965,981693114,imu_link,-0.0179443359375,0.1025390625,0.0028076171875,0.99456787109375,[0. 0. 0. 0. 0. 0. 0. 0. 0.],0.0078125,-0.001953125,-0.001953125,[0. 0. 0. 0. 0. 0. 0. 0. 0.],-1.9140625,-0.3828125,9.578125,[0. 0. 0. 0. 0. 0. 0. 0. 0.]
1742665966011756318,1742665966,1762169,imu_link,-0.0179443359375,0.1025390625,0.0028076171875,0.99456787109375,[0. 0. 0. 0. 0. 0. 0. 0. 0.],-0.001953125,-0.001953125,-0.001953125,[0. 0. 0. 0. 0. 0. 0. 0. 0.],-1.953125,-0.3046875,9.609375,[0. 0. 0. 0. 0. 0. 0. 0. 0.]
1742665966036630818,1742665966,22048892,imu_link,-0.01788330078125,0.10247802734375,0.002685546875,0.99456787109375,[0. 0. 0. 0. 0. 0. 0. 0. 0.],-0.001953125,-0.001953125,-0.001953125,[0. 0. 0. 0. 0. 0. 0. 0. 0.],-1.9921875,-0.23046875,9.58203125,[0. 0. 0. 0. 0. 0. 0. 0. 0.]
1742665966043865855,1742665966,41739077,imu_link,-0.01788330078125,0.10247802734375,0.002685546875,0.99456787109375,[0. 0. 0. 0. 0. 0. 0. 0. 0.],-0.001953125,-0.001953125,-0.001953125,[0. 0. 0. 0. 0. 0. 0. 0. 0.],-1.9921875,-0.23046875,9.58203125,[0. 0. 0. 0. 0. 0. 0. 0. 0.]
1742665966079519558,1742665966,61801540,imu_link,-0.01800537109375,0.1024169921875,0.00238037109375,0.99456787109375,[0. 0. 0. 0. 0. 0. 0. 0. 0.],-0.005859375,-0.001953125,-0.013671875,[0. 0. 0. 0. 0. 0. 0. 0. 0.],-1.9921875,-0.26953125,9.5390625,[0. 0. 0. 0. 0. 0. 0. 0. 0.]
1742665966084231484,1742665966,82115225,imu_link,-0.01800537109375,0.1024169921875,0.00238037109375,0.99456787109375,[0. 0. 0. 0. 0. 0. 0. 0. 0.],-0.005859375,-0.001953125,-0.013671875,[0. 0. 0. 0. 0. 0. 0. 0. 0.],-1.9921875,-0.26953125,9.5390625,[0. 0. 0. 0. 0. 0. 0. 0. 0.]
1742665966113158392,1742665966,101783429,imu_link,-0.01800537109375,0.1024169921875,0.00238037109375,0.99456787109375,[0. 0. 0. 0. 0. 0. 0. 0. 0.],-0.0078125,-0.001953125,-0.01171875,[0. 0. 0. 0. 0. 0. 0. 0. 0.],-1.9921875,-0.3046875,9.6484375,[0. 0. 0. 0. 0. 0. 0. 0. 0.]
1742665966134703114,1742665966,121797077,imu_link,-0.01812744140625,0.1024169921875,0.00213623046875,0.99456787109375,[0. 0. 0. 0. 0. 0. 0. 0. 0.],-0.0078125,-0.001953125,-0.01171875,[0. 0. 0. 0. 0. 0. 0. 0. 0.],-2.03125,-0.3828125,9.5390625,[0. 0. 0. 0. 0. 0. 0. 0. 0.]
1742665966144044243,1742665966,141841984,imu_link,-0.01812744140625,0.1024169921875,0.00213623046875,0.99456787109375,[0. 0. 0. 0. 0. 0. 0. 0. 0.],-0.0078125,-0.001953125,-0.01171875,[0. 0. 0. 0. 0. 0. 0. 0. 0.],-2.03125,-0.3828125,9.5390625,[0. 0. 0. 0. 0. 0. 0. 0. 0.]
1742665966179677114,1742665966,161736466,imu_link,-0.01812744140625,0.1024169921875,0.00189208984375,0.99456787109375,[0. 0. 0. 0. 0. 0. 0. 0. 0.],-0.005859375,0.001953125,-0.01171875,[0. 0. 0. 0. 0. 0. 0. 0. 0.],-2.0703125,-0.421875,9.5390625,[0. 0. 0. 0. 0. 0. 0. 0. 0.]
1742665966184788929,1742665966,182303318,imu_link,-0.01812744140625,0.1024169921875,0.00189208984375,0.99456787109375,[0. 0. 0. 0. 0. 0. 0. 0. 0.],-0.005859375,0.001953125,-0.01171875,[0. 0. 0. 0. 0. 0. 0. 0. 0.],-2.0703125,-0.421875,9.5390625,[0. 0. 0. 0. 0. 0. 0. 0. 0.]
1742665966213214003,1742665966,201902762,imu_link,-0.01812744140625,0.1024169921875,0.00189208984375,0.99456787109375,[0. 0. 0. 0. 0. 0. 0. 0. 0.],-0.001953125,0.0,0.00390625,[0. 0. 0. 0. 0. 0. 0. 0. 0.],-2.03125,-0.421875,9.609375,[0. 0. 0. 0. 0. 0. 0. 0. 0.]
1742665966235369799,1742665966,221759151,imu_link,-0.01800537109375,0.10235595703125,0.0018310546875,0.99456787109375,[0. 0. 0. 0. 0. 0. 0. 0. 0.],-0.001953125,0.0,0.00390625,[0. 0. 0. 0. 0. 0. 0. 0. 0.],-1.953125,-0.3828125,9.5390625,[0. 0. 0. 0. 0. 0. 0. 0. 0.]
1742665966244386614,1742665966,241785706,imu_link,-0.01800537109375,0.10235595703125,0.0018310546875,0.99456787109375,[0. 0. 0. 0. 0. 0. 0. 0. 0.],-0.001953125,0.0,0.00390625,[0. 0. 0. 0. 0. 0. 0. 0. 0.],-1.953125,-0.3828125,9.5390625,[0. 0. 0. 0. 0. 0. 0. 0. 0.]
1742665966264380947,1742665966,261749762,imu_link,-0.01800537109375,0.10235595703125,0.0018310546875,0.99456787109375,[0. 0. 0. 0. 0. 0. 0. 0. 0.],0.0,-0.00390625,0.00390625,[0. 0. 0. 0. 0. 0. 0. 0. 0.],-1.953125,-0.3046875,9.50390625,[0. 0. 0. 0. 0. 0. 0. 0. 0.]
1742665966288451280,1742665966,281704780,imu_link,-0.0179443359375,0.102294921875,0.00189208984375,0.99456787109375,[0. 0. 0. 0. 0. 0. 0. 0. 0.],0.0,-0.00390625,0.00390625,[0. 0. 0. 0. 0. 0. 0. 0. 0.],-1.953125,-0.26953125,9.65234375,[0. 0. 0. 0. 0. 0. 0. 0. 0.]
1742665966308708984,1742665966,301701614,imu_link,-0.0179443359375,0.102294921875,0.00189208984375,0.99456787109375,[0. 0. 0. 0. 0. 0. 0. 0. 0.],-0.001953125,0.001953125,-0.01171875,[0. 0. 0. 0. 0. 0. 0. 0. 0.],-1.953125,-0.26953125,9.65234375,[0. 0. 0. 0. 0. 0. 0. 0. 0.]
1742665966334258114,1742665966,321806429,imu_link,-0.01800537109375,0.10223388671875,0.00164794921875,0.99456787109375,[0. 0. 0. 0. 0. 0. 0. 0. 0.],-0.001953125,0.001953125,-0.01171875,[0. 0. 0. 0. 0. 0. 0. 0. 0.],-1.9921875,-0.34375,9.578125,[0. 0. 0. 0. 0. 0. 0. 0. 0.]
1742665966343846743,1742665966,341886169,imu_link,-0.01800537109375,0.10223388671875,0.00164794921875,0.99456787109375,[0. 0. 0. 0. 0. 0. 0. 0. 0.],-0.001953125,0.001953125,-0.01171875,[0. 0. 0. 0. 0. 0. 0. 0. 0.],-1.9921875,-0.34375,9.578125,[0. 0. 0. 0. 0. 0. 0. 0. 0.]
1742665966364229280,1742665966,361752614,imu_link,-0.01800537109375,0.10223388671875,0.00164794921875,0.99456787109375,[0. 0. 0. 0. 0. 0. 0. 0. 0.],0.0,0.0,0.0,[0. 0. 0. 0. 0. 0. 0. 0. 0.],-1.9921875,-0.34375,9.5390625,[0. 0. 0. 0. 0. 0. 0. 0. 0.]
1742665966399635651,1742665966,381948058,imu_link,-0.01800537109375,0.10223388671875,0.00164794921875,0.99456787109375,[0. 0. 0. 0. 0. 0. 0. 0. 0.],0.0,0.0,0.0,[0. 0. 0. 0. 0. 0. 0. 0. 0.],-2.03125,-0.26953125,9.61328125,[0. 0. 0. 0. 0. 0. 0. 0. 0.]
1742665966404292206,1742665966,402228984,imu_link,-0.01800537109375,0.10223388671875,0.00164794921875,0.99456787109375,[0. 0. 0. 0. 0. 0. 0. 0. 0.],0.001953125,-0.001953125,-0.013671875,[0. 0. 0. 0. 0. 0. 0. 0. 0.],-2.03125,-0.26953125,9.61328125,[0. 0. 0. 0. 0. 0. 0. 0. 0.]
1742665966434105595,1742665966,421798206,imu_link,-0.01800537109375,0.10223388671875,0.00140380859375,0.99462890625,[0. 0. 0. 0. 0. 0. 0. 0. 0.],0.001953125,-0.001953125,-0.013671875,[0. 0. 0. 0. 0. 0. 0. 0. 0.],-1.9921875,-0.3828125,9.5390625,[0. 0. 0. 0. 0. 0. 0. 0. 0.]
1742665966453116947,1742665966,442008373,imu_link,-0.01800537109375,0.10223388671875,0.00140380859375,0.99462890625,[0. 0. 0. 0. 0. 0. 0. 0. 0.],0.009765625,0.001953125,0.0078125,[0. 0. 0. 0. 0. 0. 0. 0. 0.],-1.9140625,-0.421875,9.58203125,[0. 0. 0. 0. 0. 0. 0. 0. 0.]
1742665966463792299,1742665966,461767317,imu_link,-0.01800537109375,0.10223388671875,0.00140380859375,0.99462890625,[0. 0. 0. 0. 0. 0. 0. 0. 0.],0.009765625,0.001953125,0.0078125,[0. 0. 0. 0. 0. 0. 0. 0. 0.],-1.9140625,-0.421875,9.58203125,[0. 0. 0. 0. 0. 0. 0. 0. 0.]
1742665966494845928,1742665966,481783891,imu_link,-0.01788330078125,0.10223388671875,0.00152587890625,0.99456787109375,[0. 0. 0. 0. 0. 0. 0. 0. 0.],0.009765625,0.001953125,0.0078125,[0. 0. 0. 0. 0. 0. 0. 0. 0.],-1.9921875,-0.3046875,9.6484375,[0. 0. 0. 0. 0. 0. 0. 0. 0.]
1742665966508362262,1742665966,502070373,imu_link,-0.01788330078125,0.10223388671875,0.00152587890625,0.99456787109375,[0. 0. 0. 0. 0. 0. 0. 0. 0.],0.0078125,0.001953125,-0.005859375,[0. 0. 0. 0. 0. 0. 0. 0. 0.],-2.03125,-0.3046875,9.54296875,[0. 0. 0. 0. 0. 0. 0. 0. 0.]
1742665966538025003,1742665966,521798021,imu_link,-0.017822265625,0.102294921875,0.00140380859375,0.99456787109375,[0. 0. 0. 0. 0. 0. 0. 0. 0.],0.0078125,0.001953125,-0.005859375,[0. 0. 0. 0. 0. 0. 0. 0. 0.],-2.03125,-0.3046875,9.54296875,[0. 0. 0. 0. 0. 0. 0. 0. 0.]
1742665966543618447,1742665966,541820428,imu_link,-0.017822265625,0.102294921875,0.00140380859375,0.99456787109375,[0. 0. 0. 0. 0. 0. 0. 0. 0.],0.0078125,0.001953125,-0.005859375,[0. 0. 0. 0. 0. 0. 0. 0. 0.],-1.953125,-0.34375,9.5390625,[0. 0. 0. 0. 0. 0. 0. 0. 0.]
1742665966579653484,1742665966,561883021,imu_link,-0.017822265625,0.102294921875,0.00140380859375,0.99456787109375,[0. 0. 0. 0. 0. 0. 0. 0. 0.],0.0078125,-0.001953125,-0.001953125,[0. 0. 0. 0. 0. 0. 0. 0. 0.],-1.9921875,-0.3046875,9.69140625,[0. 0. 0. 0. 0. 0. 0. 0. 0.]
1742665966584077854,1742665966,582381058,imu_link,-0.017822265625,0.102294921875,0.00140380859375,0.99456787109375,[0. 0. 0. 0. 0. 0. 0. 0. 0.],0.0078125,-0.001953125,-0.001953125,[0. 0. 0. 0. 0. 0. 0. 0. 0.],-1.9921875,-0.3046875,9.69140625,[0. 0. 0. 0. 0. 0. 0. 0. 0.]
1742665966612526262,1742665966,601775262,imu_link,-0.017822265625,0.102294921875,0.00140380859375,0.99456787109375,[0. 0. 0. 0. 0. 0. 0. 0. 0.],0.00390625,-0.001953125,-0.009765625,[0. 0. 0. 0. 0. 0. 0. 0. 0.],-2.03125,-0.3046875,9.50390625,[0. 0. 0. 0. 0. 0. 0. 0. 0.]
1742665966638202688,1742665966,621782391,imu_link,-0.01788330078125,0.10223388671875,0.001220703125,0.99456787109375,[0. 0. 0. 0. 0. 0. 0. 0. 0.],0.00390625,-0.001953125,-0.009765625,[0. 0. 0. 0. 0. 0. 0. 0. 0.],-1.9921875,-0.34375,9.578125,[0. 0. 0. 0. 0. 0. 0. 0. 0.]
1742665966643578021,1742665966,641815428,imu_link,-0.01788330078125,0.10223388671875,0.001220703125,0.99456787109375,[0. 0. 0. 0. 0. 0. 0. 0. 0.],0.00390625,-0.001953125,-0.009765625,[0. 0. 0. 0. 0. 0. 0. 0. 0.],-1.9921875,-0.34375,9.578125,[0. 0. 0. 0. 0. 0. 0. 0. 0.]
1742665966677767225,1742665966,661795928,imu_link,-0.01788330078125,0.10223388671875,0.00103759765625,0.99462890625,[0. 0. 0. 0. 0. 0. 0. 0. 0.],0.0,-0.001953125,-0.00390625,[0. 0. 0. 0. 0. 0. 0. 0. 0.],-1.9140625,-0.3828125,9.578125,[0. 0. 0. 0. 0. 0. 0. 0. 0.]
1742665966683682502,1742665966,681797910,imu_link,-0.01788330078125,0.10223388671875,0.00103759765625,0.99462890625,[0. 0. 0. 0. 0. 0. 0. 0. 0.],0.0,-0.001953125,-0.00390625,[0. 0. 0. 0. 0. 0. 0. 0. 0.],-1.9140625,-0.3828125,9.578125,[0. 0. 0. 0. 0. 0. 0. 0. 0.]
1742665966713215873,1742665966,701895114,imu_link,-0.01788330078125,0.10223388671875,0.00103759765625,0.99462890625,[0. 0. 0. 0. 0. 0. 0. 0. 0.],-0.0078125,-0.00390625,-0.001953125,[0. 0. 0. 0. 0. 0. 0. 0. 0.],-1.953125,-0.3828125,9.5,[0. 0. 0. 0. 0. 0. 0. 0. 0.]
1742665966734278428,1742665966,721705743,imu_link,-0.01800537109375,0.1021728515625,0.0010986328125,0.99462890625,[0. 0. 0. 0. 0. 0. 0. 0. 0.],-0.0078125,-0.00390625,-0.001953125,[0. 0. 0. 0. 0. 0. 0. 0. 0.],-2.03125,-0.3828125,9.61328125,[0. 0. 0. 0. 0. 0. 0. 0. 0.]
1742665966743572688,1742665966,741724799,imu_link,-0.01800537109375,0.1021728515625,0.0010986328125,0.99462890625,[0. 0. 0. 0. 0. 0. 0. 0. 0.],-0.0078125,-0.00390625,-0.001953125,[0. 0. 0. 0. 0. 0. 0. 0. 0.],-2.03125,-0.3828125,9.61328125,[0. 0. 0. 0. 0. 0. 0. 0. 0.]
1742665966777210706,1742665966,761790206,imu_link,-0.01806640625,0.1021728515625,0.00091552734375,0.99462890625,[0. 0. 0. 0. 0. 0. 0. 0. 0.],-0.00390625,0.001953125,-0.0078125,[0. 0. 0. 0. 0. 0. 0. 0. 0.],-2.03125,-0.3046875,9.609375,[0. 0. 0. 0. 0. 0. 0. 0. 0.]
1742665966783453391,1742665966,781695521,imu_link,-0.01806640625,0.1021728515625,0.00091552734375,0.99462890625,[0. 0. 0. 0. 0. 0. 0. 0. 0.],-0.00390625,0.001953125,-0.0078125,[0. 0. 0. 0. 0. 0. 0. 0. 0.],-2.03125,-0.3046875,9.609375,[0. 0. 0. 0. 0. 0. 0. 0. 0.]
1742665966812920132,1742665966,801694002,imu_link,-0.01806640625,0.1021728515625,0.00091552734375,0.99462890625,[0. 0. 0. 0. 0. 0. 0. 0. 0.],0.001953125,-0.001953125,0.001953125,[0. 0. 0. 0. 0. 0. 0. 0. 0.],-1.953125,-0.34375,9.5390625,[0. 0. 0. 0. 0. 0. 0. 0. 0.]
1742665966834496465,1742665966,821742965,imu_link,-0.0179443359375,0.1021728515625,0.00091552734375,0.99462890625,[0. 0. 0. 0. 0. 0. 0. 0. 0.],0.001953125,-0.001953125,0.001953125,[0. 0. 0. 0. 0. 0. 0. 0. 0.],-1.9921875,-0.3046875,9.58203125,[0. 0. 0. 0. 0. 0. 0. 0. 0.]
1742665966844074391,1742665966,841725947,imu_link,-0.0179443359375,0.1021728515625,0.00091552734375,0.99462890625,[0. 0. 0. 0. 0. 0. 0. 0. 0.],0.001953125,-0.001953125,0.001953125,[0. 0. 0. 0. 0. 0. 0. 0. 0.],-1.9921875,-0.3046875,9.58203125,[0. 0. 0. 0. 0. 0. 0. 0. 0.]
1742665966863643428,1742665966,861795725,imu_link,-0.0179443359375,0.1021728515625,0.00091552734375,0.99462890625,[0. 0. 0. 0. 0. 0. 0. 0. 0.],0.0,-0.001953125,-0.01171875,[0. 0. 0. 0. 0. 0. 0. 0. 0.],-2.03125,-0.34375,9.61328125,[0. 0. 0. 0. 0. 0. 0. 0. 0.]
1742665966888670095,1742665966,881855299,imu_link,-0.0179443359375,0.10211181640625,0.000732421875,0.99462890625,[0. 0. 0. 0. 0. 0. 0. 0. 0.],0.0,-0.001953125,-0.01171875,[0. 0. 0. 0. 0. 0. 0. 0. 0.],-1.87890625,-0.421875,9.5390625,[0. 0. 0. 0. 0. 0. 0. 0. 0.]
1742665966908716187,1742665966,901743891,imu_link,-0.0179443359375,0.10211181640625,0.000732421875,0.99462890625,[0. 0. 0. 0. 0. 0. 0. 0. 0.],0.0,-0.001953125,0.00390625,[0. 0. 0. 0. 0. 0. 0. 0. 0.],-1.87890625,-0.421875,9.5390625,[0. 0. 0. 0. 0. 0. 0. 0. 0.]
1742665966934262187,1742665966,921789669,imu_link,-0.01788330078125,0.10211181640625,0.000732421875,0.99462890625,[0. 0. 0. 0. 0. 0. 0. 0. 0.],0.0,-0.001953125,0.00390625,[0. 0. 0. 0. 0. 0. 0. 0. 0.],-1.953125,-0.3828125,9.61328125,[0. 0. 0. 0. 0. 0. 0. 0. 0.]
1742665966943412910,1742665966,941698576,imu_link,-0.01788330078125,0.10211181640625,0.000732421875,0.99462890625,[0. 0. 0. 0. 0. 0. 0. 0. 0.],0.0,-0.001953125,0.00390625,[0. 0. 0. 0. 0. 0. 0. 0. 0.],-1.953125,-0.3828125,9.61328125,[0. 0. 0. 0. 0. 0. 0. 0. 0.]
1742665966963605947,1742665966,961799780,imu_link,-0.01788330078125,0.10211181640625,0.000732421875,0.99462890625,[0. 0. 0. 0. 0. 0. 0. 0. 0.],-0.001953125,-0.001953125,-0.001953125,[0. 0. 0. 0. 0. 0. 0. 0. 0.],-1.953125,-0.34375,9.61328125,[0. 0. 0. 0. 0. 0. 0. 0. 0.]
1742665966988619854,1742665966,981756650,imu_link,-0.0179443359375,0.10205078125,0.000732421875,0.99462890625,[0. 0. 0. 0. 0. 0. 0. 0. 0.],-0.001953125,-0.001953125,-0.001953125,[0. 0. 0. 0. 0. 0. 0. 0. 0.],-1.953125,-0.3046875,9.50390625,[0. 0. 0. 0. 0. 0. 0. 0. 0.]
1742665967011884724,1742665967,1708058,imu_link,-0.0179443359375,0.10205078125,0.000732421875,0.99462890625,[0. 0. 0. 0. 0. 0. 0. 0. 0.],-0.001953125,-0.001953125,-0.005859375,[0. 0. 0. 0. 0. 0. 0. 0. 0.],-1.953125,-0.3046875,9.50390625,[0. 0. 0. 0. 0. 0. 0. 0. 0.]
1742665967033657687,1742665967,21746484,imu_link,-0.0179443359375,0.10198974609375,0.00054931640625,0.99462890625,[0. 0. 0. 0. 0. 0. 0. 0. 0.],-0.001953125,-0.001953125,-0.005859375,[0. 0. 0. 0. 0. 0. 0. 0. 0.],-1.9921875,-0.3046875,9.58203125,[0. 0. 0. 0. 0. 0. 0. 0. 0.]
1742665967052142243,1742665967,41709724,imu_link,-0.0179443359375,0.10198974609375,0.00054931640625,0.99462890625,[0. 0. 0. 0. 0. 0. 0. 0. 0.],-0.00390625,0.001953125,-0.0078125,[0. 0. 0. 0. 0. 0. 0. 0. 0.],-2.0703125,-0.3046875,9.61328125,[0. 0. 0. 0. 0. 0. 0. 0. 0.]
1742665967063653336,1742665967,61805076,imu_link,-0.0179443359375,0.10198974609375,0.00054931640625,0.99462890625,[0. 0. 0. 0. 0. 0. 0. 0. 0.],-0.00390625,0.001953125,-0.0078125,[0. 0. 0. 0. 0. 0. 0. 0. 0.],-2.0703125,-0.3046875,9.61328125,[0. 0. 0. 0. 0. 0. 0. 0. 0.]
1742665967083418502,1742665967,81702854,imu_link,-0.0179443359375,0.10198974609375,0.0003662109375,0.99462890625,[0. 0. 0. 0. 0. 0. 0. 0. 0.],-0.00390625,0.001953125,-0.0078125,[0. 0. 0. 0. 0. 0. 0. 0. 0.],-2.0703125,-0.34375,9.609375,[0. 0. 0. 0. 0. 0. 0. 0. 0.]
1742665967112332373,1742665967,101804298,imu_link,-0.0179443359375,0.10198974609375,0.0003662109375,0.99462890625,[0. 0. 0. 0. 0. 0. 0. 0. 0.],-0.00390625,-0.001953125,-0.001953125,[0. 0. 0. 0. 0. 0. 0. 0. 0.],-2.03125,-0.3828125,9.5390625,[0. 0. 0. 0. 0. 0. 0. 0. 0.]
1742665967133737669,1742665967,121831650,imu_link,-0.01800537109375,0.10198974609375,0.00030517578125,0.99462890625,[0. 0. 0. 0. 0. 0. 0. 0. 0.],-0.00390625,-0.001953125,-0.001953125,[0. 0. 0. 0. 0. 0. 0. 0. 0.],-2.03125,-0.3828125,9.5390625,[0. 0. 0. 0. 0. 0. 0. 0. 0.]
1742665967143532965,1742665967,141732447,imu_link,-0.01800537109375,0.10198974609375,0.00030517578125,0.99462890625,[0. 0. 0. 0. 0. 0. 0. 0. 0.],-0.00390625,-0.001953125,-0.001953125,[0. 0. 0. 0. 0. 0. 0. 0. 0.],-1.9921875,-0.34375,9.61328125,[0. 0. 0. 0. 0. 0. 0. 0. 0.]
1742665967163697447,1742665967,161805632,imu_link,-0.01800537109375,0.10198974609375,0.00030517578125,0.99462890625,[0. 0. 0. 0. 0. 0. 0. 0. 0.],-0.00390625,0.00390625,-0.001953125,[0. 0. 0. 0. 0. 0. 0. 0. 0.],-1.9921875,-0.34375,9.61328125,[0. 0. 0. 0. 0. 0. 0. 0. 0.]
1742665967183421632,1742665967,181709650,imu_link,-0.01806640625,0.10205078125,0.000244140625,0.99462890625,[0. 0. 0. 0. 0. 0. 0. 0. 0.],-0.00390625,0.00390625,-0.001953125,[0. 0. 0. 0. 0. 0. 0. 0. 0.],-1.9921875,-0.34375,9.5390625,[0. 0. 0. 0. 0. 0. 0. 0. 0.]
1742665967212599298,1742665967,201946891,imu_link,-0.01806640625,0.10205078125,0.000244140625,0.99462890625,[0. 0. 0. 0. 0. 0. 0. 0. 0.],-0.001953125,0.001953125,-0.005859375,[0. 0. 0. 0. 0. 0. 0. 0. 0.],-1.953125,-0.3828125,9.5390625,[0. 0. 0. 0. 0. 0. 0. 0. 0.]
1742665967236564891,1742665967,221721928,imu_link,-0.01812744140625,0.10205078125,0.0001220703125,0.99462890625,[0. 0. 0. 0. 0. 0. 0. 0. 0.],-0.001953125,0.001953125,-0.005859375,[0. 0. 0. 0. 0. 0. 0. 0. 0.],-1.953125,-0.3046875,9.6484375,[0. 0. 0. 0. 0. 0. 0. 0. 0.]
1742665967247067298,1742665967,241713521,imu_link,-0.01812744140625,0.10205078125,0.0001220703125,0.99462890625,[0. 0. 0. 0. 0. 0. 0. 0. 0.],-0.001953125,0.001953125,-0.005859375,[0. 0. 0. 0. 0. 0. 0. 0. 0.],-1.953125,-0.3046875,9.6484375,[0. 0. 0. 0. 0. 0. 0. 0. 0.]
1742665967277358761,1742665967,261793317,imu_link,-0.01806640625,0.10205078125,6.103515625e-05,0.99462890625,[0. 0. 0. 0. 0. 0. 0. 0. 0.],-0.00390625,0.00390625,-0.00390625,[0. 0. 0. 0. 0. 0. 0. 0. 0.],-1.9921875,-0.3046875,9.50390625,[0. 0. 0. 0. 0. 0. 0. 0. 0.]
1742665967283443187,1742665967,281699169,imu_link,-0.01806640625,0.10205078125,6.103515625e-05,0.99462890625,[0. 0. 0. 0. 0. 0. 0. 0. 0.],-0.00390625,0.00390625,-0.00390625,[0. 0. 0. 0. 0. 0. 0. 0. 0.],-1.9921875,-0.3046875,9.50390625,[0. 0. 0. 0. 0. 0. 0. 0. 0.]
1742665967312260761,1742665967,301709687,imu_link,-0.01806640625,0.10205078125,6.103515625e-05,0.99462890625,[0. 0. 0. 0. 0. 0. 0. 0. 0.],-0.001953125,0.001953125,0.001953125,[0. 0. 0. 0. 0. 0. 0. 0. 0.],-1.953125,-0.3828125,9.578125,[0. 0. 0. 0. 0. 0. 0. 0. 0.]
1742665967334625335,1742665967,321716113,imu_link,-0.01800537109375,0.10211181640625,6.103515625e-05,0.99462890625,[0. 0. 0. 0. 0. 0. 0. 0. 0.],-0.001953125,0.001953125,0.001953125,[0. 0. 0. 0. 0. 0. 0. 0. 0.],-1.9921875,-0.3828125,9.61328125,[0. 0. 0. 0. 0. 0. 0. 0. 0.]
1742665967348818687,1742665967,341951187,imu_link,-0.01800537109375,0.10211181640625,6.103515625e-05,0.99462890625,[0. 0. 0. 0. 0. 0. 0. 0. 0.],0.001953125,0.00390625,0.001953125,[0. 0. 0. 0. 0. 0. 0. 0. 0.],-1.9921875,-0.3828125,9.61328125,[0. 0. 0. 0. 0. 0. 0. 0. 0.]
1742665967377333854,1742665967,361794095,imu_link,-0.0179443359375,0.10211181640625,6.103515625e-05,0.99462890625,[0. 0. 0. 0. 0. 0. 0. 0. 0.],0.001953125,0.00390625,0.001953125,[0. 0. 0. 0. 0. 0. 0. 0. 0.],-2.03125,-0.3828125,9.5390625,[0. 0. 0. 0. 0. 0. 0. 0. 0.]
1742665967383861743,1742665967,381797169,imu_link,-0.0179443359375,0.10211181640625,6.103515625e-05,0.99462890625,[0. 0. 0. 0. 0. 0. 0. 0. 0.],0.001953125,0.00390625,0.001953125,[0. 0. 0. 0. 0. 0. 0. 0. 0.],-2.03125,-0.3828125,9.5390625,[0. 0. 0. 0. 0. 0. 0. 0. 0.]
1742665967412166206,1742665967,401763261,imu_link,-0.0179443359375,0.10211181640625,6.103515625e-05,0.99462890625,[0. 0. 0. 0. 0. 0. 0. 0. 0.],-0.001953125,0.001953125,0.001953125,[0. 0. 0. 0. 0. 0. 0. 0. 0.],-1.9921875,-0.34375,9.61328125,[0. 0. 0. 0. 0. 0. 0. 0. 0.]
1742665967428745372,1742665967,425403798,imu_link,-0.01788330078125,0.1021728515625,0.0001220703125,0.99462890625,[0. 0. 0. 0. 0. 0. 0. 0. 0.],-0.001953125,0.001953125,0.001953125,[0. 0. 0. 0. 0. 0. 0. 0. 0.],-1.9921875,-0.26953125,9.578125,[0. 0. 0. 0. 0. 0. 0. 0. 0.]
1742665967447912743,1742665967,441821483,imu_link,-0.01788330078125,0.1021728515625,0.0001220703125,0.99462890625,[0. 0. 0. 0. 0. 0. 0. 0. 0.],0.001953125,0.001953125,0.0,[0. 0. 0. 0. 0. 0. 0. 0. 0.],-1.9921875,-0.26953125,9.578125,[0. 0. 0. 0. 0. 0. 0. 0. 0.]
1742665967473267095,1742665967,461800650,imu_link,-0.017822265625,0.10223388671875,0.0001220703125,0.99462890625,[0. 0. 0. 0. 0. 0. 0. 0. 0.],0.001953125,0.001953125,0.0,[0. 0. 0. 0. 0. 0. 0. 0. 0.],-1.953125,-0.26953125,9.578125,[0. 0. 0. 0. 0. 0. 0. 0. 0.]
1742665967488435650,1742665967,481698946,imu_link,-0.017822265625,0.10223388671875,0.0001220703125,0.99462890625,[0. 0. 0. 0. 0. 0. 0. 0. 0.],0.001953125,0.001953125,0.0,[0. 0. 0. 0. 0. 0. 0. 0. 0.],-1.9921875,-0.3046875,9.54296875,[0. 0. 0. 0. 0. 0. 0. 0. 0.]
1742665967508494372,1742665967,501709465,imu_link,-0.017822265625,0.10223388671875,0.0001220703125,0.99462890625,[0. 0. 0. 0. 0. 0. 0. 0. 0.],0.005859375,-0.001953125,-0.00390625,[0. 0. 0. 0. 0. 0. 0. 0. 0.],-1.9921875,-0.3046875,9.54296875,[0. 0. 0. 0. 0. 0. 0. 0. 0.]
1742665967534673835,1742665967,521733298,imu_link,-0.017822265625,0.10223388671875,0.0001220703125,0.99462890625,[0. 0. 0. 0. 0. 0. 0. 0. 0.],0.005859375,-0.001953125,-0.00390625,[0. 0. 0. 0. 0. 0. 0. 0. 0.],-2.03125,-0.34375,9.61328125,[0. 0. 0. 0. 0. 0. 0. 0. 0.]
1742665967551619761,1742665967,541713854,imu_link,-0.017822265625,0.10223388671875,0.0001220703125,0.99462890625,[0. 0. 0. 0. 0. 0. 0. 0. 0.],0.005859375,-0.001953125,-0.00390625,[0. 0. 0. 0. 0. 0. 0. 0. 0.],-2.03125,-0.34375,9.61328125,[0. 0. 0. 0. 0. 0. 0. 0. 0.]
1742665967573769243,1742665967,561784520,imu_link,-0.017822265625,0.102294921875,-6.103515625e-05,0.99456787109375,[0. 0. 0. 0. 0. 0. 0. 0. 0.],0.001953125,0.00390625,-0.0078125,[0. 0. 0. 0. 0. 0. 0. 0. 0.],-2.0703125,-0.421875,9.578125,[0. 0. 0. 0. 0. 0. 0. 0. 0.]
1742665967583790872,1742665967,581699243,imu_link,-0.017822265625,0.102294921875,-6.103515625e-05,0.99456787109375,[0. 0. 0. 0. 0. 0. 0. 0. 0.],0.001953125,0.00390625,-0.0078125,[0. 0. 0. 0. 0. 0. 0. 0. 0.],-2.03125,-0.3828125,9.5,[0. 0. 0. 0. 0. 0. 0. 0. 0.]
1742665967611579224,1742665967,601794983,imu_link,-0.017822265625,0.102294921875,-6.103515625e-05,0.99456787109375,[0. 0. 0. 0. 0. 0. 0. 0. 0.],0.0,0.0,0.0,[0. 0. 0. 0. 0. 0. 0. 0. 0.],-2.03125,-0.3828125,9.5,[0. 0. 0. 0. 0. 0. 0. 0. 0.]
1742665967625796631,1742665967,622575835,imu_link,-0.017822265625,0.10235595703125,-6.103515625e-05,0.99456787109375,[0. 0. 0. 0. 0. 0. 0. 0. 0.],0.0,0.0,0.0,[0. 0. 0. 0. 0. 0. 0. 0. 0.],-1.9921875,-0.3046875,9.609375,[0. 0. 0. 0. 0. 0. 0. 0. 0.]
1742665967651632372,1742665967,641834891,imu_link,-0.017822265625,0.10235595703125,-6.103515625e-05,0.99456787109375,[0. 0. 0. 0. 0. 0. 0. 0. 0.],-0.001953125,0.0,-0.00390625,[0. 0. 0. 0. 0. 0. 0. 0. 0.],-1.9921875,-0.3046875,9.54296875,[0. 0. 0. 0. 0. 0. 0. 0. 0.]
1742665967676955854,1742665967,661717206,imu_link,-0.01776123046875,0.1024169921875,-0.00018310546875,0.99456787109375,[0. 0. 0. 0. 0. 0. 0. 0. 0.],-0.001953125,0.0,-0.00390625,[0. 0. 0. 0. 0. 0. 0. 0. 0.],-1.9921875,-0.3046875,9.54296875,[0. 0. 0. 0. 0. 0. 0. 0. 0.]
1742665967683798650,1742665967,681716076,imu_link,-0.01776123046875,0.1024169921875,-0.00018310546875,0.99456787109375,[0. 0. 0. 0. 0. 0. 0. 0. 0.],-0.001953125,0.0,-0.00390625,[0. 0. 0. 0. 0. 0. 0. 0. 0.],-1.9921875,-0.34375,9.5390625,[0. 0. 0. 0. 0. 0. 0. 0. 0.]
1742665967722995594,1742665967,701972113,imu_link,-0.01763916015625,0.1024169921875,-0.00030517578125,0.99456787109375,[0. 0. 0. 0. 0. 0. 0. 0. 0.],0.00390625,-0.001953125,-0.00390625,[0. 0. 0. 0. 0. 0. 0. 0. 0.],-2.0703125,-0.34375,9.609375,[0. 0. 0. 0. 0. 0. 0. 0. 0.]
1742665967728913150,1742665967,725553817,imu_link,-0.01763916015625,0.1024169921875,-0.00030517578125,0.99456787109375,[0. 0. 0. 0. 0. 0. 0. 0. 0.],0.00390625,-0.001953125,-0.00390625,[0. 0. 0. 0. 0. 0. 0. 0. 0.],-2.0703125,-0.34375,9.609375,[0. 0. 0. 0. 0. 0. 0. 0. 0.]
1742665967752286687,1742665967,741797724,imu_link,-0.01763916015625,0.1024169921875,-0.00030517578125,0.99456787109375,[0. 0. 0. 0. 0. 0. 0. 0. 0.],-0.001953125,-0.001953125,-0.00390625,[0. 0. 0. 0. 0. 0. 0. 0. 0.],-2.03125,-0.34375,9.5390625,[0. 0. 0. 0. 0. 0. 0. 0. 0.]
1742665967774126243,1742665967,761713317,imu_link,-0.01751708984375,0.10247802734375,-0.0003662109375,0.99456787109375,[0. 0. 0. 0. 0. 0. 0. 0. 0.],-0.001953125,-0.001953125,-0.00390625,[0. 0. 0. 0. 0. 0. 0. 0. 0.],-2.03125,-0.34375,9.5390625,[0. 0. 0. 0. 0. 0. 0. 0. 0.]
1742665967784173243,1742665967,781764020,imu_link,-0.01751708984375,0.10247802734375,-0.0003662109375,0.99456787109375,[0. 0. 0. 0. 0. 0. 0. 0. 0.],-0.001953125,-0.001953125,-0.00390625,[0. 0. 0. 0. 0. 0. 0. 0. 0.],-1.9921875,-0.3828125,9.5390625,[0. 0. 0. 0. 0. 0. 0. 0. 0.]
1742665967812117650,1742665967,801802983,imu_link,-0.01751708984375,0.10247802734375,-0.0003662109375,0.99456787109375,[0. 0. 0. 0. 0. 0. 0. 0. 0.],0.001953125,0.001953125,0.005859375,[0. 0. 0. 0. 0. 0. 0. 0. 0.],-1.9921875,-0.34375,9.65234375,[0. 0. 0. 0. 0. 0. 0. 0. 0.]
1742665967826765909,1742665967,823362761,imu_link,-0.01739501953125,0.10260009765625,-0.00030517578125,0.99456787109375,[0. 0. 0. 0. 0. 0. 0. 0. 0.],0.001953125,0.001953125,0.005859375,[0. 0. 0. 0. 0. 0. 0. 0. 0.],-1.9921875,-0.34375,9.65234375,[0. 0. 0. 0. 0. 0. 0. 0. 0.]
1742665967850232039,1742665967,841912705,imu_link,-0.01739501953125,0.10260009765625,-0.00030517578125,0.99456787109375,[0. 0. 0. 0. 0. 0. 0. 0. 0.],0.0,-0.001953125,-0.005859375,[0. 0. 0. 0. 0. 0. 0. 0. 0.],-1.9921875,-0.34375,9.5390625,[0. 0. 0. 0. 0. 0. 0. 0. 0.]
1742665967876157502,1742665967,861788891,imu_link,-0.017333984375,0.1026611328125,-0.0003662109375,0.99456787109375,[0. 0. 0. 0. 0. 0. 0. 0. 0.],0.0,-0.001953125,-0.005859375,[0. 0. 0. 0. 0. 0. 0. 0. 0.],-1.9140625,-0.3046875,9.58203125,[0. 0. 0. 0. 0. 0. 0. 0. 0.]
1742665967885024576,1742665967,881886779,imu_link,-0.017333984375,0.1026611328125,-0.0003662109375,0.99456787109375,[0. 0. 0. 0. 0. 0. 0. 0. 0.],0.0,-0.001953125,-0.005859375,[0. 0. 0. 0. 0. 0. 0. 0. 0.],-1.9140625,-0.3046875,9.58203125,[0. 0. 0. 0. 0. 0. 0. 0. 0.]
1742665967921960354,1742665967,901790205,imu_link,-0.01727294921875,0.102783203125,-0.00042724609375,0.99456787109375,[0. 0. 0. 0. 0. 0. 0. 0. 0.],0.0,0.001953125,-0.00390625,[0. 0. 0. 0. 0. 0. 0. 0. 0.],-1.9140625,-0.3046875,9.609375,[0. 0. 0. 0. 0. 0. 0. 0. 0.]
1742665967930672761,1742665967,923544761,imu_link,-0.01727294921875,0.102783203125,-0.00042724609375,0.99456787109375,[0. 0. 0. 0. 0. 0. 0. 0. 0.],0.0,0.001953125,-0.00390625,[0. 0. 0. 0. 0. 0. 0. 0. 0.],-1.9140625,-0.3046875,9.50390625,[0. 0. 0. 0. 0. 0. 0. 0. 0.]
1742665967949115131,1742665967,941751391,imu_link,-0.01727294921875,0.102783203125,-0.00042724609375,0.99456787109375,[0. 0. 0. 0. 0. 0. 0. 0. 0.],-0.00390625,0.00390625,-0.009765625,[0. 0. 0. 0. 0. 0. 0. 0. 0.],-1.9140625,-0.3046875,9.50390625,[0. 0. 0. 0. 0. 0. 0. 0. 0.]
1742665967976096187,1742665967,961806946,imu_link,-0.01727294921875,0.10284423828125,-0.0006103515625,0.99456787109375,[0. 0. 0. 0. 0. 0. 0. 0. 0.],-0.00390625,0.00390625,-0.009765625,[0. 0. 0. 0. 0. 0. 0. 0. 0.],-2.03125,-0.34375,9.61328125,[0. 0. 0. 0. 0. 0. 0. 0. 0.]
1742665967984988687,1742665967,981760798,imu_link,-0.01727294921875,0.10284423828125,-0.0006103515625,0.99456787109375,[0. 0. 0. 0. 0. 0. 0. 0. 0.],-0.00390625,0.00390625,-0.009765625,[0. 0. 0. 0. 0. 0. 0. 0. 0.],-2.03125,-0.34375,9.61328125,[0. 0. 0. 0. 0. 0. 0. 0. 0.]
1742665968009303724,1742665968,1801798,imu_link,-0.01727294921875,0.10284423828125,-0.0006103515625,0.99456787109375,[0. 0. 0. 0. 0. 0. 0. 0. 0.],-0.00390625,0.00390625,-0.001953125,[0. 0. 0. 0. 0. 0. 0. 0. 0.],-2.0703125,-0.3828125,9.58203125,[0. 0. 0. 0. 0. 0. 0. 0. 0.]
1742665968037634372,1742665968,22131779,imu_link,-0.01727294921875,0.1029052734375,-0.00067138671875,0.99456787109375,[0. 0. 0. 0. 0. 0. 0. 0. 0.],-0.00390625,0.00390625,-0.001953125,[0. 0. 0. 0. 0. 0. 0. 0. 0.],-2.10546875,-0.3046875,9.61328125,[0. 0. 0. 0. 0. 0. 0. 0. 0.]
1742665968052566020,1742665968,41749094,imu_link,-0.01727294921875,0.1029052734375,-0.00067138671875,0.99456787109375,[0. 0. 0. 0. 0. 0. 0. 0. 0.],0.0,0.001953125,-0.00390625,[0. 0. 0. 0. 0. 0. 0. 0. 0.],-2.10546875,-0.3046875,9.61328125,[0. 0. 0. 0. 0. 0. 0. 0. 0.]
1742665968074458335,1742665968,61778390,imu_link,-0.0172119140625,0.1029052734375,-0.000732421875,0.99456787109375,[0. 0. 0. 0. 0. 0. 0. 0. 0.],0.0,0.001953125,-0.00390625,[0. 0. 0. 0. 0. 0. 0. 0. 0.],-2.10546875,-0.34375,9.54296875,[0. 0. 0. 0. 0. 0. 0. 0. 0.]
1742665968089291390,1742665968,81703798,imu_link,-0.0172119140625,0.1029052734375,-0.000732421875,0.99456787109375,[0. 0. 0. 0. 0. 0. 0. 0. 0.],0.0,0.001953125,-0.00390625,[0. 0. 0. 0. 0. 0. 0. 0. 0.],-2.0703125,-0.34375,9.58203125,[0. 0. 0. 0. 0. 0. 0. 0. 0.]
1742665968109265094,1742665968,101800316,imu_link,-0.0172119140625,0.1029052734375,-0.000732421875,0.99456787109375,[0. 0. 0. 0. 0. 0. 0. 0. 0.],0.005859375,-0.001953125,-0.00390625,[0. 0. 0. 0. 0. 0. 0. 0. 0.],-2.0703125,-0.34375,9.58203125,[0. 0. 0. 0. 0. 0. 0. 0. 0.]
1742665968136681131,1742665968,121731094,imu_link,-0.01715087890625,0.1029052734375,-0.0008544921875,0.99456787109375,[0. 0. 0. 0. 0. 0. 0. 0. 0.],0.005859375,-0.001953125,-0.00390625,[0. 0. 0. 0. 0. 0. 0. 0. 0.],-1.9921875,-0.3046875,9.58203125,[0. 0. 0. 0. 0. 0. 0. 0. 0.]
1742665968152306835,1742665968,141761483,imu_link,-0.01715087890625,0.1029052734375,-0.0008544921875,0.99456787109375,[0. 0. 0. 0. 0. 0. 0. 0. 0.],0.005859375,-0.001953125,-0.00390625,[0. 0. 0. 0. 0. 0. 0. 0. 0.],-1.953125,-0.3828125,9.578125,[0. 0. 0. 0. 0. 0. 0. 0. 0.]
1742665968174451557,1742665968,161735909,imu_link,-0.01708984375,0.1029052734375,-0.0009765625,0.99456787109375,[0. 0. 0. 0. 0. 0. 0. 0. 0.],0.005859375,-0.001953125,-0.00390625,[0. 0. 0. 0. 0. 0. 0. 0. 0.],-1.953125,-0.3828125,9.578125,[0. 0. 0. 0. 0. 0. 0. 0. 0.]
1742665968185086261,1742665968,181716816,imu_link,-0.01708984375,0.1029052734375,-0.0009765625,0.99456787109375,[0. 0. 0. 0. 0. 0. 0. 0. 0.],0.005859375,-0.001953125,-0.00390625,[0. 0. 0. 0. 0. 0. 0. 0. 0.],-1.953125,-0.34375,9.5390625,[0. 0. 0. 0. 0. 0. 0. 0. 0.]
1742665968221287946,1742665968,201960705,imu_link,-0.01702880859375,0.1029052734375,-0.0010986328125,0.99456787109375,[0. 0. 0. 0. 0. 0. 0. 0. 0.],0.0078125,-0.001953125,-0.005859375,[0. 0. 0. 0. 0. 0. 0. 0. 0.],-1.9140625,-0.3046875,9.609375,[0. 0. 0. 0. 0. 0. 0. 0. 0.]
1742665968226722798,1742665968,223410631,imu_link,-0.01702880859375,0.1029052734375,-0.0010986328125,0.99456787109375,[0. 0. 0. 0. 0. 0. 0. 0. 0.],0.0078125,-0.001953125,-0.005859375,[0. 0. 0. 0. 0. 0. 0. 0. 0.],-1.9140625,-0.3046875,9.609375,[0. 0. 0. 0. 0. 0. 0. 0. 0.]
1742665968254786483,1742665968,241741298,imu_link,-0.01702880859375,0.1029052734375,-0.0010986328125,0.99456787109375,[0. 0. 0. 0. 0. 0. 0. 0. 0.],0.005859375,-0.001953125,-0.001953125,[0. 0. 0. 0. 0. 0. 0. 0. 0.],-1.9140625,-0.3046875,9.50390625,[0. 0. 0. 0. 0. 0. 0. 0. 0.]
1742665968279186427,1742665968,261733650,imu_link,-0.01702880859375,0.1029052734375,-0.00115966796875,0.99456787109375,[0. 0. 0. 0. 0. 0. 0. 0. 0.],0.005859375,-0.001953125,-0.001953125,[0. 0. 0. 0. 0. 0. 0. 0. 0.],-1.953125,-0.3046875,9.609375,[0. 0. 0. 0. 0. 0. 0. 0. 0.]
1742665968285119761,1742665968,281720927,imu_link,-0.01702880859375,0.1029052734375,-0.00115966796875,0.99456787109375,[0. 0. 0. 0. 0. 0. 0. 0. 0.],0.005859375,-0.001953125,-0.001953125,[0. 0. 0. 0. 0. 0. 0. 0. 0.],-1.953125,-0.3046875,9.609375,[0. 0. 0. 0. 0. 0. 0. 0. 0.]
1742665968322703242,1742665968,301804168,imu_link,-0.01708984375,0.10296630859375,-0.00140380859375,0.99456787109375,[0. 0. 0. 0. 0. 0. 0. 0. 0.],0.00390625,0.00390625,-0.013671875,[0. 0. 0. 0. 0. 0. 0. 0. 0.],-2.03125,-0.26953125,9.61328125,[0. 0. 0. 0. 0. 0. 0. 0. 0.]
1742665968328648946,1742665968,325314779,imu_link,-0.01708984375,0.10296630859375,-0.00140380859375,0.99456787109375,[0. 0. 0. 0. 0. 0. 0. 0. 0.],0.00390625,0.00390625,-0.013671875,[0. 0. 0. 0. 0. 0. 0. 0. 0.],-2.03125,-0.26953125,9.61328125,[0. 0. 0. 0. 0. 0. 0. 0. 0.]
1742665968354156131,1742665968,341816409,imu_link,-0.01708984375,0.10296630859375,-0.00140380859375,0.99456787109375,[0. 0. 0. 0. 0. 0. 0. 0. 0.],-0.001953125,0.001953125,-0.0078125,[0. 0. 0. 0. 0. 0. 0. 0. 0.],-2.03125,-0.34375,9.5390625,[0. 0. 0. 0. 0. 0. 0. 0. 0.]
