timestamp,header.stamp.sec,header.stamp.nanosec,header.frame_id,orientation.x,orientation.y,orientation.z,orientation.w,orientation_covariance,angular_velocity.x,angular_velocity.y,angular_velocity.z,angular_velocity_covariance,linear_acceleration.x,linear_acceleration.y,linear_acceleration.z,linear_acceleration_covariance
1742665590322765245,1742665590,306385449,imu_link,-0.01556396484375,0.09765625,-0.001220703125,0.9951171875,[0. 0. 0. 0. 0. 0. 0. 0. 0.],0.0,0.0,0.0,[0. 0. 0. 0. 0. 0. 0. 0. 0.],-1.9140625,-0.3046875,9.58203125,[0. 0. 0. 0. 0. 0. 0. 0. 0.]
1742665590329089393,1742665590,326301634,imu_link,-0.01556396484375,0.09765625,-0.001220703125,0.9951171875,[0. 0. 0. 0. 0. 0. 0. 0. 0.],0.0,0.0,0.0,[0. 0. 0. 0. 0. 0. 0. 0. 0.],-1.9140625,-0.3046875,9.58203125,[0. 0. 0. 0. 0. 0. 0. 0. 0.]
1742665590356490412,1742665590,346333042,imu_link,-0.01556396484375,0.09765625,-0.001220703125,0.9951171875,[0. 0. 0. 0. 0. 0. 0. 0. 0.],0.0,0.0,0.0,[0. 0. 0. 0. 0. 0. 0. 0. 0.],-1.9140625,-0.3046875,9.58203125,[0. 0. 0. 0. 0. 0. 0. 0. 0.]
1742665590380207153,1742665590,366372412,imu_link,-0.01556396484375,0.09765625,-0.001220703125,0.9951171875,[0. 0. 0. 0. 0. 0. 0. 0. 0.],0.0,0.0,0.0,[0. 0. 0. 0. 0. 0. 0. 0. 0.],-1.9140625,-0.3046875,9.58203125,[0. 0. 0. 0. 0. 0. 0. 0. 0.]
1742665590390127930,1742665590,386447301,imu_link,-0.01556396484375,0.09765625,-0.001220703125,0.9951171875,[0. 0. 0. 0. 0. 0. 0. 0. 0.],0.0,0.0,0.0,[0. 0. 0. 0. 0. 0. 0. 0. 0.],-1.9140625,-0.3046875,9.58203125,[0. 0. 0. 0. 0. 0. 0. 0. 0.]
1742665590422626893,1742665590,406446097,imu_link,-0.01556396484375,0.09765625,-0.001220703125,0.9951171875,[0. 0. 0. 0. 0. 0. 0. 0. 0.],0.0,0.0,0.0,[0. 0. 0. 0. 0. 0. 0. 0. 0.],-1.9140625,-0.3046875,9.58203125,[0. 0. 0. 0. 0. 0. 0. 0. 0.]
1742665590429943930,1742665590,426407856,imu_link,-0.01556396484375,0.09765625,-0.001220703125,0.9951171875,[0. 0. 0. 0. 0. 0. 0. 0. 0.],0.0,0.0,0.0,[0. 0. 0. 0. 0. 0. 0. 0. 0.],-1.9140625,-0.3046875,9.58203125,[0. 0. 0. 0. 0. 0. 0. 0. 0.]
1742665590452970912,1742665590,446416930,imu_link,-0.01556396484375,0.09765625,-0.001220703125,0.9951171875,[0. 0. 0. 0. 0. 0. 0. 0. 0.],0.0,0.0,0.0,[0. 0. 0. 0. 0. 0. 0. 0. 0.],-1.87890625,-0.3046875,9.578125,[0. 0. 0. 0. 0. 0. 0. 0. 0.]
1742665590479690245,1742665590,466376041,imu_link,-0.01556396484375,0.09765625,-0.001220703125,0.9951171875,[0. 0. 0. 0. 0. 0. 0. 0. 0.],0.0,0.0,0.0,[0. 0. 0. 0. 0. 0. 0. 0. 0.],-1.9140625,-0.3046875,9.58203125,[0. 0. 0. 0. 0. 0. 0. 0. 0.]
1742665590489390153,1742665590,486311245,imu_link,-0.01556396484375,0.09765625,-0.001220703125,0.9951171875,[0. 0. 0. 0. 0. 0. 0. 0. 0.],0.0,0.0,0.0,[0. 0. 0. 0. 0. 0. 0. 0. 0.],-1.9140625,-0.3046875,9.58203125,[0. 0. 0. 0. 0. 0. 0. 0. 0.]
1742665590524277578,1742665590,507112116,imu_link,-0.01556396484375,0.09765625,-0.001220703125,0.9951171875,[0. 0. 0. 0. 0. 0. 0. 0. 0.],0.0,0.0,0.0,[0. 0. 0. 0. 0. 0. 0. 0. 0.],-1.9140625,-0.3046875,9.58203125,[0. 0. 0. 0. 0. 0. 0. 0. 0.]
1742665590534651616,1742665590,531269356,imu_link,-0.01556396484375,0.09765625,-0.001220703125,0.9951171875,[0. 0. 0. 0. 0. 0. 0. 0. 0.],0.0,0.0,0.0,[0. 0. 0. 0. 0. 0. 0. 0. 0.],-1.9140625,-0.3046875,9.58203125,[0. 0. 0. 0. 0. 0. 0. 0. 0.]
1742665590552802615,1742665590,546288690,imu_link,-0.01556396484375,0.09765625,-0.001220703125,0.9951171875,[0. 0. 0. 0. 0. 0. 0. 0. 0.],0.0,0.0,0.0,[0. 0. 0. 0. 0. 0. 0. 0. 0.],-1.9140625,-0.3046875,9.58203125,[0. 0. 0. 0. 0. 0. 0. 0. 0.]
1742665590578624838,1742665590,566544430,imu_link,-0.01556396484375,0.09765625,-0.001220703125,0.9951171875,[0. 0. 0. 0. 0. 0. 0. 0. 0.],0.0,0.0,0.0,[0. 0. 0. 0. 0. 0. 0. 0. 0.],-1.9140625,-0.3046875,9.58203125,[0. 0. 0. 0. 0. 0. 0. 0. 0.]
1742665590597673912,1742665590,586309634,imu_link,-0.01556396484375,0.09765625,-0.001220703125,0.9951171875,[0. 0. 0. 0. 0. 0. 0. 0. 0.],0.0,0.0,0.0,[0. 0. 0. 0. 0. 0. 0. 0. 0.],-1.9140625,-0.3046875,9.58203125,[0. 0. 0. 0. 0. 0. 0. 0. 0.]
1742665590608617319,1742665590,606408504,imu_link,-0.01556396484375,0.09765625,-0.001220703125,0.9951171875,[0. 0. 0. 0. 0. 0. 0. 0. 0.],0.0,0.0,0.0,[0. 0. 0. 0. 0. 0. 0. 0. 0.],-1.9140625,-0.3046875,9.58203125,[0. 0. 0. 0. 0. 0. 0. 0. 0.]
1742665590639056819,1742665590,626362227,imu_link,-0.01556396484375,0.09771728515625,-0.001220703125,0.9951171875,[0. 0. 0. 0. 0. 0. 0. 0. 0.],0.0,0.0,0.0,[0. 0. 0. 0. 0. 0. 0. 0. 0.],-1.9140625,-0.3046875,9.58203125,[0. 0. 0. 0. 0. 0. 0. 0. 0.]
1742665590651435597,1742665590,646319152,imu_link,-0.01556396484375,0.09771728515625,-0.001220703125,0.9951171875,[0. 0. 0. 0. 0. 0. 0. 0. 0.],0.0,0.0,0.0,[0. 0. 0. 0. 0. 0. 0. 0. 0.],-1.9140625,-0.3046875,9.58203125,[0. 0. 0. 0. 0. 0. 0. 0. 0.]
1742665590678718171,1742665590,666316375,imu_link,-0.01556396484375,0.09771728515625,-0.001220703125,0.9951171875,[0. 0. 0. 0. 0. 0. 0. 0. 0.],0.0,0.0,0.0,[0. 0. 0. 0. 0. 0. 0. 0. 0.],-1.9140625,-0.3046875,9.58203125,[0. 0. 0. 0. 0. 0. 0. 0. 0.]
1742665590696856912,1742665590,686294875,imu_link,-0.01556396484375,0.09771728515625,-0.001220703125,0.9951171875,[0. 0. 0. 0. 0. 0. 0. 0. 0.],0.0,0.0,0.0,[0. 0. 0. 0. 0. 0. 0. 0. 0.],-1.9140625,-0.3046875,9.58203125,[0. 0. 0. 0. 0. 0. 0. 0. 0.]
1742665590708846319,1742665590,706372856,imu_link,-0.01556396484375,0.09771728515625,-0.001220703125,0.9951171875,[0. 0. 0. 0. 0. 0. 0. 0. 0.],0.0,0.0,0.0,[0. 0. 0. 0. 0. 0. 0. 0. 0.],-1.9140625,-0.3046875,9.58203125,[0. 0. 0. 0. 0. 0. 0. 0. 0.]
1742665590743689004,1742665590,726630819,imu_link,-0.01556396484375,0.09771728515625,-0.001220703125,0.9951171875,[0. 0. 0. 0. 0. 0. 0. 0. 0.],0.0,0.0,0.0,[0. 0. 0. 0. 0. 0. 0. 0. 0.],-1.87890625,-0.3046875,9.578125,[0. 0. 0. 0. 0. 0. 0. 0. 0.]
1742665590754228652,1742665590,750363023,imu_link,-0.01556396484375,0.09771728515625,-0.001220703125,0.9951171875,[0. 0. 0. 0. 0. 0. 0. 0. 0.],0.0,0.0,0.0,[0. 0. 0. 0. 0. 0. 0. 0. 0.],-1.87890625,-0.3046875,9.578125,[0. 0. 0. 0. 0. 0. 0. 0. 0.]
1742665590783952671,1742665590,766359504,imu_link,-0.01556396484375,0.0977783203125,-0.001220703125,0.9951171875,[0. 0. 0. 0. 0. 0. 0. 0. 0.],0.0,0.0,0.0,[0. 0. 0. 0. 0. 0. 0. 0. 0.],-1.87890625,-0.3046875,9.578125,[0. 0. 0. 0. 0. 0. 0. 0. 0.]
1742665590788630245,1742665590,786541523,imu_link,-0.01556396484375,0.0977783203125,-0.001220703125,0.9951171875,[0. 0. 0. 0. 0. 0. 0. 0. 0.],0.0,0.0,0.0,[0. 0. 0. 0. 0. 0. 0. 0. 0.],-1.87890625,-0.3046875,9.578125,[0. 0. 0. 0. 0. 0. 0. 0. 0.]
1742665590808625949,1742665590,806393671,imu_link,-0.01556396484375,0.0977783203125,-0.001220703125,0.9951171875,[0. 0. 0. 0. 0. 0. 0. 0. 0.],0.0,0.0,0.0,[0. 0. 0. 0. 0. 0. 0. 0. 0.],-1.87890625,-0.3046875,9.578125,[0. 0. 0. 0. 0. 0. 0. 0. 0.]
1742665590828532467,1742665590,826332782,imu_link,-0.01556396484375,0.0977783203125,-0.001220703125,0.99505615234375,[0. 0. 0. 0. 0. 0. 0. 0. 0.],0.0,0.0,0.0,[0. 0. 0. 0. 0. 0. 0. 0. 0.],-1.9140625,-0.3046875,9.58203125,[0. 0. 0. 0. 0. 0. 0. 0. 0.]
1742665590857066134,1742665590,846425634,imu_link,-0.01556396484375,0.0977783203125,-0.001220703125,0.99505615234375,[0. 0. 0. 0. 0. 0. 0. 0. 0.],0.0,0.0,0.0,[0. 0. 0. 0. 0. 0. 0. 0. 0.],-1.9140625,-0.3046875,9.58203125,[0. 0. 0. 0. 0. 0. 0. 0. 0.]
1742665590883270875,1742665590,866341708,imu_link,-0.01556396484375,0.0977783203125,-0.001220703125,0.99505615234375,[0. 0. 0. 0. 0. 0. 0. 0. 0.],0.0,0.0,0.0,[0. 0. 0. 0. 0. 0. 0. 0. 0.],-1.87890625,-0.3046875,9.578125,[0. 0. 0. 0. 0. 0. 0. 0. 0.]
1742665590888540097,1742665590,886278171,imu_link,-0.01556396484375,0.0977783203125,-0.001220703125,0.99505615234375,[0. 0. 0. 0. 0. 0. 0. 0. 0.],0.0,0.0,0.0,[0. 0. 0. 0. 0. 0. 0. 0. 0.],-1.87890625,-0.3046875,9.578125,[0. 0. 0. 0. 0. 0. 0. 0. 0.]
1742665590922628708,1742665590,906390578,imu_link,-0.01556396484375,0.0977783203125,-0.001220703125,0.99505615234375,[0. 0. 0. 0. 0. 0. 0. 0. 0.],0.0,0.0,0.0,[0. 0. 0. 0. 0. 0. 0. 0. 0.],-1.87890625,-0.3046875,9.578125,[0. 0. 0. 0. 0. 0. 0. 0. 0.]
1742665590928538689,1742665590,926333671,imu_link,-0.01556396484375,0.0977783203125,-0.001220703125,0.99505615234375,[0. 0. 0. 0. 0. 0. 0. 0. 0.],0.0,0.0,0.0,[0. 0. 0. 0. 0. 0. 0. 0. 0.],-1.87890625,-0.3046875,9.578125,[0. 0. 0. 0. 0. 0. 0. 0. 0.]
1742665590957591560,1742665590,946338708,imu_link,-0.01556396484375,0.0977783203125,-0.001220703125,0.99505615234375,[0. 0. 0. 0. 0. 0. 0. 0. 0.],0.0,0.0,0.0,[0. 0. 0. 0. 0. 0. 0. 0. 0.],-1.9140625,-0.3046875,9.58203125,[0. 0. 0. 0. 0. 0. 0. 0. 0.]
1742665590978741449,1742665590,966346319,imu_link,-0.01556396484375,0.0977783203125,-0.001220703125,0.9951171875,[0. 0. 0. 0. 0. 0. 0. 0. 0.],0.0,0.0,0.0,[0. 0. 0. 0. 0. 0. 0. 0. 0.],-1.9140625,-0.3046875,9.58203125,[0. 0. 0. 0. 0. 0. 0. 0. 0.]
1742665590988405134,1742665590,986292412,imu_link,-0.01556396484375,0.0977783203125,-0.001220703125,0.9951171875,[0. 0. 0. 0. 0. 0. 0. 0. 0.],0.0,0.0,0.0,[0. 0. 0. 0. 0. 0. 0. 0. 0.],-1.9140625,-0.3046875,9.58203125,[0. 0. 0. 0. 0. 0. 0. 0. 0.]
1742665591023760337,1742665591,6388060,imu_link,-0.01556396484375,0.0977783203125,-0.001220703125,0.9951171875,[0. 0. 0. 0. 0. 0. 0. 0. 0.],0.0,0.0,0.0,[0. 0. 0. 0. 0. 0. 0. 0. 0.],-1.9140625,-0.3046875,9.58203125,[0. 0. 0. 0. 0. 0. 0. 0. 0.]
1742665591028328023,1742665591,26393837,imu_link,-0.01556396484375,0.0977783203125,-0.001220703125,0.9951171875,[0. 0. 0. 0. 0. 0. 0. 0. 0.],0.0,0.0,0.0,[0. 0. 0. 0. 0. 0. 0. 0. 0.],-1.9140625,-0.3046875,9.58203125,[0. 0. 0. 0. 0. 0. 0. 0. 0.]
1742665591057459152,1742665591,46361189,imu_link,-0.01556396484375,0.0977783203125,-0.001220703125,0.9951171875,[0. 0. 0. 0. 0. 0. 0. 0. 0.],0.0,0.0,0.0,[0. 0. 0. 0. 0. 0. 0. 0. 0.],-1.9140625,-0.3046875,9.58203125,[0. 0. 0. 0. 0. 0. 0. 0. 0.]
1742665591079598467,1742665591,66504430,imu_link,-0.01556396484375,0.0977783203125,-0.001220703125,0.9951171875,[0. 0. 0. 0. 0. 0. 0. 0. 0.],0.0,0.0,0.0,[0. 0. 0. 0. 0. 0. 0. 0. 0.],-1.87890625,-0.3046875,9.578125,[0. 0. 0. 0. 0. 0. 0. 0. 0.]
1742665591088249578,1742665591,86300337,imu_link,-0.01556396484375,0.0977783203125,-0.001220703125,0.9951171875,[0. 0. 0. 0. 0. 0. 0. 0. 0.],0.0,0.0,0.0,[0. 0. 0. 0. 0. 0. 0. 0. 0.],-1.87890625,-0.3046875,9.578125,[0. 0. 0. 0. 0. 0. 0. 0. 0.]
1742665591123557226,1742665591,106395430,imu_link,-0.01556396484375,0.0977783203125,-0.001220703125,0.9951171875,[0. 0. 0. 0. 0. 0. 0. 0. 0.],0.0,0.0,0.0,[0. 0. 0. 0. 0. 0. 0. 0. 0.],-1.9140625,-0.3046875,9.58203125,[0. 0. 0. 0. 0. 0. 0. 0. 0.]
1742665591133473430,1742665591,129509726,imu_link,-0.01556396484375,0.0977783203125,-0.001220703125,0.9951171875,[0. 0. 0. 0. 0. 0. 0. 0. 0.],0.0,0.0,0.0,[0. 0. 0. 0. 0. 0. 0. 0. 0.],-1.87890625,-0.3046875,9.578125,[0. 0. 0. 0. 0. 0. 0. 0. 0.]
1742665591152984189,1742665591,146371560,imu_link,-0.01556396484375,0.0977783203125,-0.001220703125,0.9951171875,[0. 0. 0. 0. 0. 0. 0. 0. 0.],0.0,0.0,0.0,[0. 0. 0. 0. 0. 0. 0. 0. 0.],-1.87890625,-0.3046875,9.578125,[0. 0. 0. 0. 0. 0. 0. 0. 0.]
1742665591178423560,1742665591,166359430,imu_link,-0.01556396484375,0.09771728515625,-0.001220703125,0.9951171875,[0. 0. 0. 0. 0. 0. 0. 0. 0.],0.0,0.0,0.0,[0. 0. 0. 0. 0. 0. 0. 0. 0.],-1.87890625,-0.3046875,9.578125,[0. 0. 0. 0. 0. 0. 0. 0. 0.]
1742665591188015226,1742665591,186283967,imu_link,-0.01556396484375,0.09771728515625,-0.001220703125,0.9951171875,[0. 0. 0. 0. 0. 0. 0. 0. 0.],0.0,0.0,0.0,[0. 0. 0. 0. 0. 0. 0. 0. 0.],-1.87890625,-0.3046875,9.578125,[0. 0. 0. 0. 0. 0. 0. 0. 0.]
1742665591208169708,1742665591,206373448,imu_link,-0.01556396484375,0.09771728515625,-0.001220703125,0.9951171875,[0. 0. 0. 0. 0. 0. 0. 0. 0.],0.0,0.0,0.0,[0. 0. 0. 0. 0. 0. 0. 0. 0.],-1.9140625,-0.3046875,9.58203125,[0. 0. 0. 0. 0. 0. 0. 0. 0.]
1742665591239054041,1742665591,226404948,imu_link,-0.01556396484375,0.09771728515625,-0.001220703125,0.9951171875,[0. 0. 0. 0. 0. 0. 0. 0. 0.],0.0,0.0,0.0,[0. 0. 0. 0. 0. 0. 0. 0. 0.],-1.9140625,-0.3046875,9.58203125,[0. 0. 0. 0. 0. 0. 0. 0. 0.]
1742665591248167171,1742665591,246352041,imu_link,-0.01556396484375,0.09771728515625,-0.001220703125,0.9951171875,[0. 0. 0. 0. 0. 0. 0. 0. 0.],0.0,0.0,0.0,[0. 0. 0. 0. 0. 0. 0. 0. 0.],-1.9140625,-0.3046875,9.58203125,[0. 0. 0. 0. 0. 0. 0. 0. 0.]
1742665591278116171,1742665591,266383374,imu_link,-0.01556396484375,0.09771728515625,-0.001220703125,0.9951171875,[0. 0. 0. 0. 0. 0. 0. 0. 0.],0.0,0.0,0.0,[0. 0. 0. 0. 0. 0. 0. 0. 0.],-1.9140625,-0.3046875,9.58203125,[0. 0. 0. 0. 0. 0. 0. 0. 0.]
1742665591296851763,1742665591,286360985,imu_link,-0.01556396484375,0.09771728515625,-0.001220703125,0.9951171875,[0. 0. 0. 0. 0. 0. 0. 0. 0.],0.0,0.0,0.0,[0. 0. 0. 0. 0. 0. 0. 0. 0.],-1.87890625,-0.3046875,9.578125,[0. 0. 0. 0. 0. 0. 0. 0. 0.]
1742665591308188911,1742665591,306375652,imu_link,-0.01556396484375,0.09771728515625,-0.001220703125,0.9951171875,[0. 0. 0. 0. 0. 0. 0. 0. 0.],0.0,0.0,0.0,[0. 0. 0. 0. 0. 0. 0. 0. 0.],-1.87890625,-0.3046875,9.578125,[0. 0. 0. 0. 0. 0. 0. 0. 0.]
1742665591328158152,1742665591,326355337,imu_link,-0.01556396484375,0.09771728515625,-0.001220703125,0.9951171875,[0. 0. 0. 0. 0. 0. 0. 0. 0.],0.0,0.0,0.0,[0. 0. 0. 0. 0. 0. 0. 0. 0.],-1.87890625,-0.3046875,9.578125,[0. 0. 0. 0. 0. 0. 0. 0. 0.]
1742665591357276689,1742665591,346348300,imu_link,-0.01556396484375,0.09771728515625,-0.001220703125,0.9951171875,[0. 0. 0. 0. 0. 0. 0. 0. 0.],0.0,0.0,0.0,[0. 0. 0. 0. 0. 0. 0. 0. 0.],-1.87890625,-0.3046875,9.578125,[0. 0. 0. 0. 0. 0. 0. 0. 0.]
1742665591383645078,1742665591,366353559,imu_link,-0.01556396484375,0.09771728515625,-0.001220703125,0.9951171875,[0. 0. 0. 0. 0. 0. 0. 0. 0.],0.0,0.0,0.0,[0. 0. 0. 0. 0. 0. 0. 0. 0.],-1.9140625,-0.3046875,9.58203125,[0. 0. 0. 0. 0. 0. 0. 0. 0.]
1742665591388262800,1742665591,386501152,imu_link,-0.01556396484375,0.09771728515625,-0.001220703125,0.9951171875,[0. 0. 0. 0. 0. 0. 0. 0. 0.],0.0,0.0,0.0,[0. 0. 0. 0. 0. 0. 0. 0. 0.],-1.9140625,-0.3046875,9.58203125,[0. 0. 0. 0. 0. 0. 0. 0. 0.]
1742665591408206504,1742665591,406377226,imu_link,-0.01556396484375,0.09771728515625,-0.001220703125,0.9951171875,[0. 0. 0. 0. 0. 0. 0. 0. 0.],0.0,0.0,0.0,[0. 0. 0. 0. 0. 0. 0. 0. 0.],-1.9140625,-0.3046875,9.58203125,[0. 0. 0. 0. 0. 0. 0. 0. 0.]
1742665591447603504,1742665591,426416763,imu_link,-0.01556396484375,0.09771728515625,-0.001220703125,0.9951171875,[0. 0. 0. 0. 0. 0. 0. 0. 0.],0.0,0.0,0.0,[0. 0. 0. 0. 0. 0. 0. 0. 0.],-1.9140625,-0.3046875,9.58203125,[0. 0. 0. 0. 0. 0. 0. 0. 0.]
1742665591452831448,1742665591,449208245,imu_link,-0.01556396484375,0.09771728515625,-0.001220703125,0.9951171875,[0. 0. 0. 0. 0. 0. 0. 0. 0.],0.0,0.0,0.0,[0. 0. 0. 0. 0. 0. 0. 0. 0.],-1.9140625,-0.3046875,9.58203125,[0. 0. 0. 0. 0. 0. 0. 0. 0.]
1742665591482103689,1742665591,466380337,imu_link,-0.01556396484375,0.09771728515625,-0.001220703125,0.9951171875,[0. 0. 0. 0. 0. 0. 0. 0. 0.],0.0,0.0,0.0,[0. 0. 0. 0. 0. 0. 0. 0. 0.],-1.9140625,-0.3046875,9.58203125,[0. 0. 0. 0. 0. 0. 0. 0. 0.]
1742665591488030670,1742665591,486283096,imu_link,-0.01556396484375,0.09771728515625,-0.001220703125,0.9951171875,[0. 0. 0. 0. 0. 0. 0. 0. 0.],0.0,0.0,0.0,[0. 0. 0. 0. 0. 0. 0. 0. 0.],-1.9140625,-0.3046875,9.58203125,[0. 0. 0. 0. 0. 0. 0. 0. 0.]
1742665591523410578,1742665591,506379189,imu_link,-0.01556396484375,0.09771728515625,-0.001220703125,0.9951171875,[0. 0. 0. 0. 0. 0. 0. 0. 0.],0.0,0.0,0.0,[0. 0. 0. 0. 0. 0. 0. 0. 0.],-1.87890625,-0.3046875,9.578125,[0. 0. 0. 0. 0. 0. 0. 0. 0.]
1742665591527968022,1742665591,526291763,imu_link,-0.01556396484375,0.09771728515625,-0.001220703125,0.9951171875,[0. 0. 0. 0. 0. 0. 0. 0. 0.],0.0,0.0,0.0,[0. 0. 0. 0. 0. 0. 0. 0. 0.],-1.87890625,-0.3046875,9.578125,[0. 0. 0. 0. 0. 0. 0. 0. 0.]
1742665591556990096,1742665591,546382189,imu_link,-0.01556396484375,0.09771728515625,-0.001220703125,0.9951171875,[0. 0. 0. 0. 0. 0. 0. 0. 0.],0.0,0.0,0.0,[0. 0. 0. 0. 0. 0. 0. 0. 0.],-1.87890625,-0.3046875,9.578125,[0. 0. 0. 0. 0. 0. 0. 0. 0.]
1742665591578923948,1742665591,566509467,imu_link,-0.01556396484375,0.09771728515625,-0.001220703125,0.9951171875,[0. 0. 0. 0. 0. 0. 0. 0. 0.],0.0,0.0,0.0,[0. 0. 0. 0. 0. 0. 0. 0. 0.],-1.87890625,-0.3046875,9.578125,[0. 0. 0. 0. 0. 0. 0. 0. 0.]
1742665591588106707,1742665591,586341541,imu_link,-0.01556396484375,0.09771728515625,-0.001220703125,0.9951171875,[0. 0. 0. 0. 0. 0. 0. 0. 0.],0.0,0.0,0.0,[0. 0. 0. 0. 0. 0. 0. 0. 0.],-1.87890625,-0.3046875,9.578125,[0. 0. 0. 0. 0. 0. 0. 0. 0.]
1742665591622191189,1742665591,606388448,imu_link,-0.01556396484375,0.09771728515625,-0.001220703125,0.9951171875,[0. 0. 0. 0. 0. 0. 0. 0. 0.],0.0,0.0,0.0,[0. 0. 0. 0. 0. 0. 0. 0. 0.],-1.9140625,-0.3046875,9.58203125,[0. 0. 0. 0. 0. 0. 0. 0. 0.]
1742665591628015856,1742665591,626324856,imu_link,-0.01556396484375,0.09771728515625,-0.001220703125,0.9951171875,[0. 0. 0. 0. 0. 0. 0. 0. 0.],0.0,0.0,0.0,[0. 0. 0. 0. 0. 0. 0. 0. 0.],-1.9140625,-0.3046875,9.58203125,[0. 0. 0. 0. 0. 0. 0. 0. 0.]
1742665591656953670,1742665591,646386948,imu_link,-0.01556396484375,0.09771728515625,-0.001220703125,0.9951171875,[0. 0. 0. 0. 0. 0. 0. 0. 0.],0.0,0.0,0.0,[0. 0. 0. 0. 0. 0. 0. 0. 0.],-1.9140625,-0.3046875,9.58203125,[0. 0. 0. 0. 0. 0. 0. 0. 0.]
1742665591678691337,1742665591,666349893,imu_link,-0.01556396484375,0.09771728515625,-0.001220703125,0.9951171875,[0. 0. 0. 0. 0. 0. 0. 0. 0.],0.0,0.0,0.0,[0. 0. 0. 0. 0. 0. 0. 0. 0.],-1.9140625,-0.3046875,9.58203125,[0. 0. 0. 0. 0. 0. 0. 0. 0.]
1742665591688086022,1742665591,686302578,imu_link,-0.01556396484375,0.09771728515625,-0.001220703125,0.9951171875,[0. 0. 0. 0. 0. 0. 0. 0. 0.],0.0,0.0,0.0,[0. 0. 0. 0. 0. 0. 0. 0. 0.],-1.9140625,-0.3046875,9.58203125,[0. 0. 0. 0. 0. 0. 0. 0. 0.]
1742665591708032485,1742665591,706308096,imu_link,-0.01556396484375,0.09771728515625,-0.001220703125,0.9951171875,[0. 0. 0. 0. 0. 0. 0. 0. 0.],0.0,0.0,0.0,[0. 0. 0. 0. 0. 0. 0. 0. 0.],-1.9140625,-0.3046875,9.58203125,[0. 0. 0. 0. 0. 0. 0. 0. 0.]
1742665591733433856,1742665591,726344096,imu_link,-0.01556396484375,0.09771728515625,-0.001220703125,0.9951171875,[0. 0. 0. 0. 0. 0. 0. 0. 0.],0.0,0.0,0.0,[0. 0. 0. 0. 0. 0. 0. 0. 0.],-1.9140625,-0.3046875,9.58203125,[0. 0. 0. 0. 0. 0. 0. 0. 0.]
1742665591753703115,1742665591,746923411,imu_link,-0.01556396484375,0.09771728515625,-0.001220703125,0.9951171875,[0. 0. 0. 0. 0. 0. 0. 0. 0.],0.0,0.0,0.0,[0. 0. 0. 0. 0. 0. 0. 0. 0.],-1.9140625,-0.3046875,9.58203125,[0. 0. 0. 0. 0. 0. 0. 0. 0.]
1742665591778575281,1742665591,766354096,imu_link,-0.01556396484375,0.09771728515625,-0.001220703125,0.9951171875,[0. 0. 0. 0. 0. 0. 0. 0. 0.],0.0,0.0,0.0,[0. 0. 0. 0. 0. 0. 0. 0. 0.],-1.9140625,-0.3046875,9.58203125,[0. 0. 0. 0. 0. 0. 0. 0. 0.]
1742665591788080763,1742665591,786335356,imu_link,-0.01556396484375,0.09771728515625,-0.001220703125,0.9951171875,[0. 0. 0. 0. 0. 0. 0. 0. 0.],0.0,0.0,0.0,[0. 0. 0. 0. 0. 0. 0. 0. 0.],-1.9140625,-0.3046875,9.58203125,[0. 0. 0. 0. 0. 0. 0. 0. 0.]
1742665591808105096,1742665591,806342818,imu_link,-0.01556396484375,0.09771728515625,-0.001220703125,0.9951171875,[0. 0. 0. 0. 0. 0. 0. 0. 0.],0.0,0.0,0.0,[0. 0. 0. 0. 0. 0. 0. 0. 0.],-1.9140625,-0.3046875,9.54296875,[0. 0. 0. 0. 0. 0. 0. 0. 0.]
1742665591832930485,1742665591,826313541,imu_link,-0.01556396484375,0.09771728515625,-0.001220703125,0.9951171875,[0. 0. 0. 0. 0. 0. 0. 0. 0.],0.0,0.0,0.0,[0. 0. 0. 0. 0. 0. 0. 0. 0.],-1.9140625,-0.3046875,9.58203125,[0. 0. 0. 0. 0. 0. 0. 0. 0.]
1742665591856224096,1742665591,846389374,imu_link,-0.01556396484375,0.09771728515625,-0.001220703125,0.9951171875,[0. 0. 0. 0. 0. 0. 0. 0. 0.],0.0,0.0,0.0,[0. 0. 0. 0. 0. 0. 0. 0. 0.],-1.87890625,-0.3046875,9.578125,[0. 0. 0. 0. 0. 0. 0. 0. 0.]
1742665591877701281,1742665591,866312207,imu_link,-0.01556396484375,0.09771728515625,-0.001220703125,0.9951171875,[0. 0. 0. 0. 0. 0. 0. 0. 0.],0.0,0.0,0.0,[0. 0. 0. 0. 0. 0. 0. 0. 0.],-1.87890625,-0.3046875,9.578125,[0. 0. 0. 0. 0. 0. 0. 0. 0.]
1742665591896765115,1742665591,886289892,imu_link,-0.01556396484375,0.09771728515625,-0.001220703125,0.9951171875,[0. 0. 0. 0. 0. 0. 0. 0. 0.],0.0,0.0,0.0,[0. 0. 0. 0. 0. 0. 0. 0. 0.],-1.9140625,-0.3046875,9.58203125,[0. 0. 0. 0. 0. 0. 0. 0. 0.]
1742665591908020504,1742665591,906311318,imu_link,-0.01556396484375,0.09771728515625,-0.001220703125,0.9951171875,[0. 0. 0. 0. 0. 0. 0. 0. 0.],0.0,0.0,0.0,[0. 0. 0. 0. 0. 0. 0. 0. 0.],-1.9140625,-0.3046875,9.58203125,[0. 0. 0. 0. 0. 0. 0. 0. 0.]
1742665591928201429,1742665591,926409429,imu_link,-0.01556396484375,0.09771728515625,-0.001220703125,0.9951171875,[0. 0. 0. 0. 0. 0. 0. 0. 0.],0.0,0.0,0.0,[0. 0. 0. 0. 0. 0. 0. 0. 0.],-1.87890625,-0.3046875,9.578125,[0. 0. 0. 0. 0. 0. 0. 0. 0.]
1742665591956163004,1742665591,946385892,imu_link,-0.01556396484375,0.09771728515625,-0.001220703125,0.9951171875,[0. 0. 0. 0. 0. 0. 0. 0. 0.],0.0,0.0,0.0,[0. 0. 0. 0. 0. 0. 0. 0. 0.],-1.87890625,-0.3046875,9.578125,[0. 0. 0. 0. 0. 0. 0. 0. 0.]
1742665591977758485,1742665591,966352985,imu_link,-0.01556396484375,0.0977783203125,-0.001220703125,0.9951171875,[0. 0. 0. 0. 0. 0. 0. 0. 0.],0.0,0.0,0.0,[0. 0. 0. 0. 0. 0. 0. 0. 0.],-1.87890625,-0.3046875,9.578125,[0. 0. 0. 0. 0. 0. 0. 0. 0.]
1742665591992373004,1742665591,986267726,imu_link,-0.01556396484375,0.0977783203125,-0.001220703125,0.9951171875,[0. 0. 0. 0. 0. 0. 0. 0. 0.],0.0,0.0,0.0,[0. 0. 0. 0. 0. 0. 0. 0. 0.],-1.9140625,-0.3046875,9.58203125,[0. 0. 0. 0. 0. 0. 0. 0. 0.]
1742665592008139411,1742665592,6362374,imu_link,-0.01556396484375,0.0977783203125,-0.001220703125,0.9951171875,[0. 0. 0. 0. 0. 0. 0. 0. 0.],0.0,0.0,0.0,[0. 0. 0. 0. 0. 0. 0. 0. 0.],-1.9140625,-0.3046875,9.58203125,[0. 0. 0. 0. 0. 0. 0. 0. 0.]
1742665592028031763,1742665592,26303615,imu_link,-0.01556396484375,0.0977783203125,-0.00115966796875,0.9951171875,[0. 0. 0. 0. 0. 0. 0. 0. 0.],0.0,0.0,0.0,[0. 0. 0. 0. 0. 0. 0. 0. 0.],-1.9140625,-0.3046875,9.58203125,[0. 0. 0. 0. 0. 0. 0. 0. 0.]
1742665592056239226,1742665592,46400911,imu_link,-0.01556396484375,0.0977783203125,-0.00115966796875,0.9951171875,[0. 0. 0. 0. 0. 0. 0. 0. 0.],0.0,0.0,0.0,[0. 0. 0. 0. 0. 0. 0. 0. 0.],-1.87890625,-0.3046875,9.578125,[0. 0. 0. 0. 0. 0. 0. 0. 0.]
1742665592070779503,1742665592,67917207,imu_link,-0.01556396484375,0.0977783203125,-0.00115966796875,0.9951171875,[0. 0. 0. 0. 0. 0. 0. 0. 0.],0.0,0.0,0.0,[0. 0. 0. 0. 0. 0. 0. 0. 0.],-1.87890625,-0.3046875,9.578125,[0. 0. 0. 0. 0. 0. 0. 0. 0.]
1742665592093030985,1742665592,86318615,imu_link,-0.01556396484375,0.0977783203125,-0.00115966796875,0.9951171875,[0. 0. 0. 0. 0. 0. 0. 0. 0.],0.0,0.0,0.0,[0. 0. 0. 0. 0. 0. 0. 0. 0.],-1.87890625,-0.3046875,9.578125,[0. 0. 0. 0. 0. 0. 0. 0. 0.]
1742665592122004189,1742665592,106344763,imu_link,-0.01556396484375,0.09771728515625,-0.00115966796875,0.9951171875,[0. 0. 0. 0. 0. 0. 0. 0. 0.],0.0,0.0,0.0,[0. 0. 0. 0. 0. 0. 0. 0. 0.],-1.9140625,-0.3046875,9.58203125,[0. 0. 0. 0. 0. 0. 0. 0. 0.]
1742665592128093226,1742665592,126316596,imu_link,-0.01556396484375,0.09771728515625,-0.00115966796875,0.9951171875,[0. 0. 0. 0. 0. 0. 0. 0. 0.],0.0,0.0,0.0,[0. 0. 0. 0. 0. 0. 0. 0. 0.],-1.9140625,-0.3046875,9.58203125,[0. 0. 0. 0. 0. 0. 0. 0. 0.]
1742665592156286300,1742665592,146389281,imu_link,-0.01556396484375,0.09771728515625,-0.00115966796875,0.9951171875,[0. 0. 0. 0. 0. 0. 0. 0. 0.],0.0,0.0,0.0,[0. 0. 0. 0. 0. 0. 0. 0. 0.],-1.9140625,-0.3046875,9.58203125,[0. 0. 0. 0. 0. 0. 0. 0. 0.]
1742665592175197059,1742665592,167671929,imu_link,-0.01556396484375,0.09771728515625,-0.00115966796875,0.9951171875,[0. 0. 0. 0. 0. 0. 0. 0. 0.],0.0,0.0,0.0,[0. 0. 0. 0. 0. 0. 0. 0. 0.],-1.9140625,-0.3046875,9.58203125,[0. 0. 0. 0. 0. 0. 0. 0. 0.]
1742665592193046429,1742665592,186346485,imu_link,-0.01556396484375,0.09771728515625,-0.00115966796875,0.9951171875,[0. 0. 0. 0. 0. 0. 0. 0. 0.],0.0,0.0,0.0,[0. 0. 0. 0. 0. 0. 0. 0. 0.],-1.9140625,-0.3046875,9.58203125,[0. 0. 0. 0. 0. 0. 0. 0. 0.]
1742665592218581966,1742665592,206297985,imu_link,-0.01556396484375,0.09771728515625,-0.00115966796875,0.9951171875,[0. 0. 0. 0. 0. 0. 0. 0. 0.],0.0,0.0,0.0,[0. 0. 0. 0. 0. 0. 0. 0. 0.],-1.87890625,-0.3046875,9.578125,[0. 0. 0. 0. 0. 0. 0. 0. 0.]
1742665592228749800,1742665592,226317170,imu_link,-0.01556396484375,0.09771728515625,-0.00115966796875,0.9951171875,[0. 0. 0. 0. 0. 0. 0. 0. 0.],0.0,0.0,0.0,[0. 0. 0. 0. 0. 0. 0. 0. 0.],-1.87890625,-0.3046875,9.578125,[0. 0. 0. 0. 0. 0. 0. 0. 0.]
1742665592253971689,1742665592,246533559,imu_link,-0.01556396484375,0.09771728515625,-0.00115966796875,0.9951171875,[0. 0. 0. 0. 0. 0. 0. 0. 0.],0.0,0.0,0.0,[0. 0. 0. 0. 0. 0. 0. 0. 0.],-1.9140625,-0.3046875,9.58203125,[0. 0. 0. 0. 0. 0. 0. 0. 0.]
1742665592279945374,1742665592,266305540,imu_link,-0.01556396484375,0.09771728515625,-0.00115966796875,0.9951171875,[0. 0. 0. 0. 0. 0. 0. 0. 0.],0.0,0.0,0.0,[0. 0. 0. 0. 0. 0. 0. 0. 0.],-1.9140625,-0.3046875,9.58203125,[0. 0. 0. 0. 0. 0. 0. 0. 0.]
1742665592292365337,1742665592,286319633,imu_link,-0.01556396484375,0.09771728515625,-0.00115966796875,0.9951171875,[0. 0. 0. 0. 0. 0. 0. 0. 0.],0.0,0.0,0.0,[0. 0. 0. 0. 0. 0. 0. 0. 0.],-1.9140625,-0.3046875,9.58203125,[0. 0. 0. 0. 0. 0. 0. 0. 0.]
1742665592318491874,1742665592,306347263,imu_link,-0.01556396484375,0.09771728515625,-0.00115966796875,0.9951171875,[0. 0. 0. 0. 0. 0. 0. 0. 0.],0.0,0.0,0.0,[0. 0. 0. 0. 0. 0. 0. 0. 0.],-1.9140625,-0.3046875,9.58203125,[0. 0. 0. 0. 0. 0. 0. 0. 0.]
1742665592333708170,1742665592,326366670,imu_link,-0.01556396484375,0.09771728515625,-0.00115966796875,0.9951171875,[0. 0. 0. 0. 0. 0. 0. 0. 0.],0.0,0.0,0.0,[0. 0. 0. 0. 0. 0. 0. 0. 0.],-1.9140625,-0.3046875,9.58203125,[0. 0. 0. 0. 0. 0. 0. 0. 0.]
1742665592353885485,1742665592,346389689,imu_link,-0.01556396484375,0.09771728515625,-0.00115966796875,0.9951171875,[0. 0. 0. 0. 0. 0. 0. 0. 0.],0.0,0.0,0.0,[0. 0. 0. 0. 0. 0. 0. 0. 0.],-1.9140625,-0.3046875,9.58203125,[0. 0. 0. 0. 0. 0. 0. 0. 0.]
1742665592381231337,1742665592,366357448,imu_link,-0.01556396484375,0.09771728515625,-0.00115966796875,0.9951171875,[0. 0. 0. 0. 0. 0. 0. 0. 0.],0.0,0.0,0.0,[0. 0. 0. 0. 0. 0. 0. 0. 0.],-1.9140625,-0.3046875,9.58203125,[0. 0. 0. 0. 0. 0. 0. 0. 0.]
1742665592396700707,1742665592,386381244,imu_link,-0.01556396484375,0.09771728515625,-0.00115966796875,0.9951171875,[0. 0. 0. 0. 0. 0. 0. 0. 0.],0.0,0.0,0.0,[0. 0. 0. 0. 0. 0. 0. 0. 0.],-1.87890625,-0.3046875,9.578125,[0. 0. 0. 0. 0. 0. 0. 0. 0.]
1742665592418321485,1742665592,406304003,imu_link,-0.01556396484375,0.09771728515625,-0.00115966796875,0.9951171875,[0. 0. 0. 0. 0. 0. 0. 0. 0.],0.0,0.0,0.0,[0. 0. 0. 0. 0. 0. 0. 0. 0.],-1.87890625,-0.3046875,9.578125,[0. 0. 0. 0. 0. 0. 0. 0. 0.]
1742665592429493725,1742665592,426388966,imu_link,-0.01556396484375,0.09771728515625,-0.00115966796875,0.9951171875,[0. 0. 0. 0. 0. 0. 0. 0. 0.],0.0,0.0,0.0,[0. 0. 0. 0. 0. 0. 0. 0. 0.],-1.9140625,-0.3046875,9.58203125,[0. 0. 0. 0. 0. 0. 0. 0. 0.]
1742665592466458559,1742665592,446393837,imu_link,-0.01556396484375,0.0977783203125,-0.00115966796875,0.9951171875,[0. 0. 0. 0. 0. 0. 0. 0. 0.],0.0,0.0,0.0,[0. 0. 0. 0. 0. 0. 0. 0. 0.],-1.9140625,-0.3046875,9.58203125,[0. 0. 0. 0. 0. 0. 0. 0. 0.]
1742665592471895022,1742665592,468522874,imu_link,-0.01556396484375,0.0977783203125,-0.00115966796875,0.9951171875,[0. 0. 0. 0. 0. 0. 0. 0. 0.],0.0,0.0,0.0,[0. 0. 0. 0. 0. 0. 0. 0. 0.],-1.9140625,-0.3046875,9.58203125,[0. 0. 0. 0. 0. 0. 0. 0. 0.]
1742665592497639374,1742665592,486398670,imu_link,-0.01556396484375,0.0977783203125,-0.00115966796875,0.9951171875,[0. 0. 0. 0. 0. 0. 0. 0. 0.],0.0,0.0,0.0,[0. 0. 0. 0. 0. 0. 0. 0. 0.],-1.9140625,-0.3046875,9.58203125,[0. 0. 0. 0. 0. 0. 0. 0. 0.]
1742665592521810300,1742665592,506285207,imu_link,-0.01556396484375,0.0977783203125,-0.00115966796875,0.99505615234375,[0. 0. 0. 0. 0. 0. 0. 0. 0.],0.0,0.0,0.0,[0. 0. 0. 0. 0. 0. 0. 0. 0.],-1.9140625,-0.3046875,9.58203125,[0. 0. 0. 0. 0. 0. 0. 0. 0.]
1742665592528000985,1742665592,526272392,imu_link,-0.01556396484375,0.0977783203125,-0.00115966796875,0.99505615234375,[0. 0. 0. 0. 0. 0. 0. 0. 0.],0.0,0.0,0.0,[0. 0. 0. 0. 0. 0. 0. 0. 0.],-1.9140625,-0.3046875,9.58203125,[0. 0. 0. 0. 0. 0. 0. 0. 0.]
1742665592570890059,1742665592,546457596,imu_link,-0.01556396484375,0.0977783203125,-0.00115966796875,0.99505615234375,[0. 0. 0. 0. 0. 0. 0. 0. 0.],0.0,0.0,0.0,[0. 0. 0. 0. 0. 0. 0. 0. 0.],-1.87890625,-0.3046875,9.578125,[0. 0. 0. 0. 0. 0. 0. 0. 0.]
1742665592575747762,1742665592,573886188,imu_link,-0.01556396484375,0.0977783203125,-0.00115966796875,0.99505615234375,[0. 0. 0. 0. 0. 0. 0. 0. 0.],0.0,0.0,0.0,[0. 0. 0. 0. 0. 0. 0. 0. 0.],-1.87890625,-0.3046875,9.578125,[0. 0. 0. 0. 0. 0. 0. 0. 0.]
1742665592596919336,1742665592,586377948,imu_link,-0.01556396484375,0.0977783203125,-0.00115966796875,0.99505615234375,[0. 0. 0. 0. 0. 0. 0. 0. 0.],0.0,0.0,0.0,[0. 0. 0. 0. 0. 0. 0. 0. 0.],-1.87890625,-0.3046875,9.578125,[0. 0. 0. 0. 0. 0. 0. 0. 0.]
1742665592620686466,1742665592,606352781,imu_link,-0.01556396484375,0.09783935546875,-0.00115966796875,0.99505615234375,[0. 0. 0. 0. 0. 0. 0. 0. 0.],0.0,0.0,0.0,[0. 0. 0. 0. 0. 0. 0. 0. 0.],-1.72265625,-0.4609375,9.58203125,[0. 0. 0. 0. 0. 0. 0. 0. 0.]
1742665592629309336,1742665592,626280670,imu_link,-0.01556396484375,0.09783935546875,-0.00115966796875,0.99505615234375,[0. 0. 0. 0. 0. 0. 0. 0. 0.],0.0,0.0,0.0,[0. 0. 0. 0. 0. 0. 0. 0. 0.],-1.72265625,-0.4609375,9.58203125,[0. 0. 0. 0. 0. 0. 0. 0. 0.]
1742665592666743022,1742665592,646392651,imu_link,-0.01495361328125,0.0977783203125,0.0001220703125,0.9951171875,[0. 0. 0. 0. 0. 0. 0. 0. 0.],0.02734375,0.0,0.0625,[0. 0. 0. 0. 0. 0. 0. 0. 0.],-1.1484375,-0.69140625,9.58203125,[0. 0. 0. 0. 0. 0. 0. 0. 0.]
1742665592676313985,1742665592,669351262,imu_link,-0.01495361328125,0.0977783203125,0.0001220703125,0.9951171875,[0. 0. 0. 0. 0. 0. 0. 0. 0.],0.02734375,0.0,0.0625,[0. 0. 0. 0. 0. 0. 0. 0. 0.],-1.1484375,-0.69140625,9.58203125,[0. 0. 0. 0. 0. 0. 0. 0. 0.]
1742665592694528707,1742665592,686386040,imu_link,-0.01495361328125,0.0977783203125,0.0001220703125,0.9951171875,[0. 0. 0. 0. 0. 0. 0. 0. 0.],0.015625,0.0,0.142578125,[0. 0. 0. 0. 0. 0. 0. 0. 0.],-0.84375,-0.7265625,9.6484375,[0. 0. 0. 0. 0. 0. 0. 0. 0.]
1742665592720950577,1742665592,706349466,imu_link,-0.0142822265625,0.09771728515625,0.00335693359375,0.9951171875,[0. 0. 0. 0. 0. 0. 0. 0. 0.],0.015625,0.0,0.142578125,[0. 0. 0. 0. 0. 0. 0. 0. 0.],-0.61328125,-0.3046875,9.65234375,[0. 0. 0. 0. 0. 0. 0. 0. 0.]
1742665592730332373,1742665592,726295040,imu_link,-0.0142822265625,0.09771728515625,0.00335693359375,0.9951171875,[0. 0. 0. 0. 0. 0. 0. 0. 0.],0.015625,0.0,0.142578125,[0. 0. 0. 0. 0. 0. 0. 0. 0.],-0.61328125,-0.3046875,9.65234375,[0. 0. 0. 0. 0. 0. 0. 0. 0.]
1742665592773422725,1742665592,747309429,imu_link,-0.0146484375,0.0975341796875,0.00408935546875,0.9951171875,[0. 0. 0. 0. 0. 0. 0. 0. 0.],-0.015625,-0.001953125,0.009765625,[0. 0. 0. 0. 0. 0. 0. 0. 0.],-0.4609375,-0.34375,9.8046875,[0. 0. 0. 0. 0. 0. 0. 0. 0.]
1742665592777546207,1742665592,775235429,imu_link,-0.0146484375,0.0975341796875,0.00408935546875,0.9951171875,[0. 0. 0. 0. 0. 0. 0. 0. 0.],-0.015625,-0.001953125,0.009765625,[0. 0. 0. 0. 0. 0. 0. 0. 0.],-0.3046875,-0.7265625,9.578125,[0. 0. 0. 0. 0. 0. 0. 0. 0.]
1742665592794384540,1742665592,786401707,imu_link,-0.0146484375,0.0975341796875,0.00408935546875,0.9951171875,[0. 0. 0. 0. 0. 0. 0. 0. 0.],-0.02734375,0.005859375,0.119140625,[0. 0. 0. 0. 0. 0. 0. 0. 0.],-0.3046875,-0.7265625,9.578125,[0. 0. 0. 0. 0. 0. 0. 0. 0.]
1742665592820566133,1742665592,806337170,imu_link,-0.0150146484375,0.09735107421875,0.006591796875,0.9951171875,[0. 0. 0. 0. 0. 0. 0. 0. 0.],-0.02734375,0.005859375,0.119140625,[0. 0. 0. 0. 0. 0. 0. 0. 0.],-0.99609375,-0.421875,9.65234375,[0. 0. 0. 0. 0. 0. 0. 0. 0.]
1742665592828628299,1742665592,826279299,imu_link,-0.0150146484375,0.09735107421875,0.006591796875,0.9951171875,[0. 0. 0. 0. 0. 0. 0. 0. 0.],-0.02734375,0.005859375,0.119140625,[0. 0. 0. 0. 0. 0. 0. 0. 0.],-0.99609375,-0.421875,9.65234375,[0. 0. 0. 0. 0. 0. 0. 0. 0.]
1742665592854316947,1742665592,846317799,imu_link,-0.0150146484375,0.09735107421875,0.006591796875,0.9951171875,[0. 0. 0. 0. 0. 0. 0. 0. 0.],-0.01953125,0.013671875,0.087890625,[0. 0. 0. 0. 0. 0. 0. 0. 0.],-1.83984375,0.11328125,9.58203125,[0. 0. 0. 0. 0. 0. 0. 0. 0.]
1742665592880986633,1742665592,866364096,imu_link,-0.01531982421875,0.09722900390625,0.0089111328125,0.9951171875,[0. 0. 0. 0. 0. 0. 0. 0. 0.],-0.01953125,0.013671875,0.087890625,[0. 0. 0. 0. 0. 0. 0. 0. 0.],-2.296875,0.078125,9.58203125,[0. 0. 0. 0. 0. 0. 0. 0. 0.]
1742665592897445947,1742665592,886541077,imu_link,-0.01531982421875,0.09722900390625,0.0089111328125,0.9951171875,[0. 0. 0. 0. 0. 0. 0. 0. 0.],-0.01953125,0.005859375,0.015625,[0. 0. 0. 0. 0. 0. 0. 0. 0.],-2.22265625,-0.23046875,9.5390625,[0. 0. 0. 0. 0. 0. 0. 0. 0.]
1742665592918883799,1742665592,906307299,imu_link,-0.015869140625,0.09698486328125,0.009521484375,0.9951171875,[0. 0. 0. 0. 0. 0. 0. 0. 0.],-0.01953125,0.005859375,0.015625,[0. 0. 0. 0. 0. 0. 0. 0. 0.],-2.22265625,-0.23046875,9.5390625,[0. 0. 0. 0. 0. 0. 0. 0. 0.]
1742665592934588966,1742665592,926463133,imu_link,-0.015869140625,0.09698486328125,0.009521484375,0.9951171875,[0. 0. 0. 0. 0. 0. 0. 0. 0.],-0.01953125,0.005859375,0.015625,[0. 0. 0. 0. 0. 0. 0. 0. 0.],-2.26171875,-0.23046875,9.5,[0. 0. 0. 0. 0. 0. 0. 0. 0.]
1742665592949705892,1742665592,946326670,imu_link,-0.015869140625,0.09698486328125,0.009521484375,0.9951171875,[0. 0. 0. 0. 0. 0. 0. 0. 0.],-0.01171875,0.005859375,0.0234375,[0. 0. 0. 0. 0. 0. 0. 0. 0.],-2.26171875,-0.23046875,9.5,[0. 0. 0. 0. 0. 0. 0. 0. 0.]
1742665592981485818,1742665592,966382355,imu_link,-0.016357421875,0.09661865234375,0.010009765625,0.9951171875,[0. 0. 0. 0. 0. 0. 0. 0. 0.],-0.01171875,0.005859375,0.0234375,[0. 0. 0. 0. 0. 0. 0. 0. 0.],-2.453125,-0.11328125,9.61328125,[0. 0. 0. 0. 0. 0. 0. 0. 0.]
1742665592998217744,1742665592,986362410,imu_link,-0.016357421875,0.09661865234375,0.010009765625,0.9951171875,[0. 0. 0. 0. 0. 0. 0. 0. 0.],-0.00390625,0.005859375,0.015625,[0. 0. 0. 0. 0. 0. 0. 0. 0.],-2.48828125,-0.078125,9.4609375,[0. 0. 0. 0. 0. 0. 0. 0. 0.]
1742665593018266558,1742665593,6290188,imu_link,-0.01666259765625,0.0963134765625,0.01043701171875,0.99517822265625,[0. 0. 0. 0. 0. 0. 0. 0. 0.],-0.00390625,0.005859375,0.015625,[0. 0. 0. 0. 0. 0. 0. 0. 0.],-2.48828125,-0.078125,9.4609375,[0. 0. 0. 0. 0. 0. 0. 0. 0.]
1742665593029662114,1742665593,26268929,imu_link,-0.01666259765625,0.0963134765625,0.01043701171875,0.99517822265625,[0. 0. 0. 0. 0. 0. 0. 0. 0.],-0.00390625,0.005859375,0.015625,[0. 0. 0. 0. 0. 0. 0. 0. 0.],-2.453125,-0.11328125,9.578125,[0. 0. 0. 0. 0. 0. 0. 0. 0.]
1742665593065462299,1742665593,46389447,imu_link,-0.01678466796875,0.095947265625,0.01068115234375,0.99517822265625,[0. 0. 0. 0. 0. 0. 0. 0. 0.],0.005859375,0.00390625,0.009765625,[0. 0. 0. 0. 0. 0. 0. 0. 0.],-2.375,-0.23046875,9.54296875,[0. 0. 0. 0. 0. 0. 0. 0. 0.]
1742665593071925966,1742665593,68537336,imu_link,-0.01678466796875,0.095947265625,0.01068115234375,0.99517822265625,[0. 0. 0. 0. 0. 0. 0. 0. 0.],0.005859375,0.00390625,0.009765625,[0. 0. 0. 0. 0. 0. 0. 0. 0.],-2.375,-0.23046875,9.54296875,[0. 0. 0. 0. 0. 0. 0. 0. 0.]
1742665593097103188,1742665593,86375670,imu_link,-0.01678466796875,0.095947265625,0.01068115234375,0.99517822265625,[0. 0. 0. 0. 0. 0. 0. 0. 0.],0.009765625,-0.001953125,0.01953125,[0. 0. 0. 0. 0. 0. 0. 0. 0.],-2.14453125,-0.3828125,9.5390625,[0. 0. 0. 0. 0. 0. 0. 0. 0.]
1742665593123297207,1742665593,106314836,imu_link,-0.01690673828125,0.0955810546875,0.01104736328125,0.9952392578125,[0. 0. 0. 0. 0. 0. 0. 0. 0.],0.009765625,-0.001953125,0.01953125,[0. 0. 0. 0. 0. 0. 0. 0. 0.],-2.10546875,-0.19140625,9.61328125,[0. 0. 0. 0. 0. 0. 0. 0. 0.]
1742665593129556558,1742665593,126268095,imu_link,-0.01690673828125,0.0955810546875,0.01104736328125,0.9952392578125,[0. 0. 0. 0. 0. 0. 0. 0. 0.],0.009765625,-0.001953125,0.01953125,[0. 0. 0. 0. 0. 0. 0. 0. 0.],-2.10546875,-0.19140625,9.61328125,[0. 0. 0. 0. 0. 0. 0. 0. 0.]
1742665593166671373,1742665593,146394910,imu_link,-0.0172119140625,0.09527587890625,0.01043701171875,0.9952392578125,[0. 0. 0. 0. 0. 0. 0. 0. 0.],0.0078125,0.001953125,-0.033203125,[0. 0. 0. 0. 0. 0. 0. 0. 0.],-1.9921875,-0.15234375,9.578125,[0. 0. 0. 0. 0. 0. 0. 0. 0.]
1742665593172648651,1742665593,169248669,imu_link,-0.0172119140625,0.09527587890625,0.01043701171875,0.9952392578125,[0. 0. 0. 0. 0. 0. 0. 0. 0.],0.0078125,0.001953125,-0.033203125,[0. 0. 0. 0. 0. 0. 0. 0. 0.],-1.9921875,-0.15234375,9.578125,[0. 0. 0. 0. 0. 0. 0. 0. 0.]
1742665593198258762,1742665593,186380114,imu_link,-0.0172119140625,0.09527587890625,0.01043701171875,0.9952392578125,[0. 0. 0. 0. 0. 0. 0. 0. 0.],0.0,0.005859375,-0.013671875,[0. 0. 0. 0. 0. 0. 0. 0. 0.],-1.68359375,-0.3046875,9.58203125,[0. 0. 0. 0. 0. 0. 0. 0. 0.]
1742665593219792873,1742665593,206271873,imu_link,-0.0174560546875,0.094970703125,0.0098876953125,0.99530029296875,[0. 0. 0. 0. 0. 0. 0. 0. 0.],0.0,0.005859375,-0.013671875,[0. 0. 0. 0. 0. 0. 0. 0. 0.],-1.4921875,-0.34375,9.5390625,[0. 0. 0. 0. 0. 0. 0. 0. 0.]
1742665593229607688,1742665593,226278688,imu_link,-0.0174560546875,0.094970703125,0.0098876953125,0.99530029296875,[0. 0. 0. 0. 0. 0. 0. 0. 0.],0.0,0.005859375,-0.013671875,[0. 0. 0. 0. 0. 0. 0. 0. 0.],-1.4921875,-0.34375,9.5390625,[0. 0. 0. 0. 0. 0. 0. 0. 0.]
1742665593267526762,1742665593,246545021,imu_link,-0.017578125,0.0947265625,0.0098876953125,0.99530029296875,[0. 0. 0. 0. 0. 0. 0. 0. 0.],-0.01171875,0.001953125,-0.001953125,[0. 0. 0. 0. 0. 0. 0. 0. 0.],-1.5703125,-0.23046875,9.61328125,[0. 0. 0. 0. 0. 0. 0. 0. 0.]
1742665593275396503,1742665593,270130447,imu_link,-0.017578125,0.0947265625,0.0098876953125,0.99530029296875,[0. 0. 0. 0. 0. 0. 0. 0. 0.],-0.01171875,0.001953125,-0.001953125,[0. 0. 0. 0. 0. 0. 0. 0. 0.],-1.609375,-0.26953125,9.61328125,[0. 0. 0. 0. 0. 0. 0. 0. 0.]
1742665593293581355,1742665593,286377206,imu_link,-0.017578125,0.0947265625,0.0098876953125,0.99530029296875,[0. 0. 0. 0. 0. 0. 0. 0. 0.],-0.0078125,0.00390625,-0.037109375,[0. 0. 0. 0. 0. 0. 0. 0. 0.],-1.609375,-0.26953125,9.61328125,[0. 0. 0. 0. 0. 0. 0. 0. 0.]
1742665593320487836,1742665593,306307577,imu_link,-0.01776123046875,0.094482421875,0.00909423828125,0.99530029296875,[0. 0. 0. 0. 0. 0. 0. 0. 0.],-0.0078125,0.00390625,-0.037109375,[0. 0. 0. 0. 0. 0. 0. 0. 0.],-1.4921875,-0.4609375,9.5390625,[0. 0. 0. 0. 0. 0. 0. 0. 0.]
1742665593329763447,1742665593,326375151,imu_link,-0.01776123046875,0.094482421875,0.00909423828125,0.99530029296875,[0. 0. 0. 0. 0. 0. 0. 0. 0.],-0.0078125,0.00390625,-0.037109375,[0. 0. 0. 0. 0. 0. 0. 0. 0.],-1.4921875,-0.4609375,9.5390625,[0. 0. 0. 0. 0. 0. 0. 0. 0.]
1742665593372409873,1742665593,346335392,imu_link,-0.017822265625,0.0943603515625,0.009033203125,0.995361328125,[0. 0. 0. 0. 0. 0. 0. 0. 0.],-0.005859375,0.0078125,0.00390625,[0. 0. 0. 0. 0. 0. 0. 0. 0.],-1.72265625,-0.3828125,9.69140625,[0. 0. 0. 0. 0. 0. 0. 0. 0.]
1742665593377441151,1742665593,374118688,imu_link,-0.017822265625,0.0943603515625,0.009033203125,0.995361328125,[0. 0. 0. 0. 0. 0. 0. 0. 0.],-0.005859375,0.0078125,0.00390625,[0. 0. 0. 0. 0. 0. 0. 0. 0.],-2.03125,-0.23046875,9.50390625,[0. 0. 0. 0. 0. 0. 0. 0. 0.]
1742665593393562688,1742665593,386322688,imu_link,-0.017822265625,0.0943603515625,0.009033203125,0.995361328125,[0. 0. 0. 0. 0. 0. 0. 0. 0.],-0.005859375,0.001953125,-0.02734375,[0. 0. 0. 0. 0. 0. 0. 0. 0.],-2.03125,-0.23046875,9.50390625,[0. 0. 0. 0. 0. 0. 0. 0. 0.]
1742665593420936003,1742665593,406295206,imu_link,-0.01806640625,0.0941162109375,0.00848388671875,0.995361328125,[0. 0. 0. 0. 0. 0. 0. 0. 0.],-0.005859375,0.001953125,-0.02734375,[0. 0. 0. 0. 0. 0. 0. 0. 0.],-2.18359375,-0.3046875,9.58203125,[0. 0. 0. 0. 0. 0. 0. 0. 0.]
1742665593434011021,1742665593,426557058,imu_link,-0.01806640625,0.0941162109375,0.00848388671875,0.995361328125,[0. 0. 0. 0. 0. 0. 0. 0. 0.],-0.005859375,0.001953125,-0.02734375,[0. 0. 0. 0. 0. 0. 0. 0. 0.],-2.18359375,-0.3046875,9.58203125,[0. 0. 0. 0. 0. 0. 0. 0. 0.]
1742665593449964780,1742665593,446294484,imu_link,-0.01806640625,0.0941162109375,0.00848388671875,0.995361328125,[0. 0. 0. 0. 0. 0. 0. 0. 0.],0.0,0.00390625,-0.01171875,[0. 0. 0. 0. 0. 0. 0. 0. 0.],-2.18359375,-0.3828125,9.578125,[0. 0. 0. 0. 0. 0. 0. 0. 0.]
1742665593480898688,1742665593,466358484,imu_link,-0.0181884765625,0.0938720703125,0.008056640625,0.995361328125,[0. 0. 0. 0. 0. 0. 0. 0. 0.],0.0,0.00390625,-0.01171875,[0. 0. 0. 0. 0. 0. 0. 0. 0.],-2.22265625,-0.3046875,9.578125,[0. 0. 0. 0. 0. 0. 0. 0. 0.]
1742665593497743947,1742665593,486298280,imu_link,-0.0181884765625,0.0938720703125,0.008056640625,0.995361328125,[0. 0. 0. 0. 0. 0. 0. 0. 0.],0.0,0.00390625,-0.01171875,[0. 0. 0. 0. 0. 0. 0. 0. 0.],-2.22265625,-0.3046875,9.578125,[0. 0. 0. 0. 0. 0. 0. 0. 0.]
1742665593520022966,1742665593,506278651,imu_link,-0.01837158203125,0.0936279296875,0.00775146484375,0.99542236328125,[0. 0. 0. 0. 0. 0. 0. 0. 0.],0.0,0.00390625,-0.01171875,[0. 0. 0. 0. 0. 0. 0. 0. 0.],-2.22265625,-0.34375,9.54296875,[0. 0. 0. 0. 0. 0. 0. 0. 0.]
1742665593533759577,1742665593,526386817,imu_link,-0.01837158203125,0.0936279296875,0.00775146484375,0.99542236328125,[0. 0. 0. 0. 0. 0. 0. 0. 0.],0.0,0.00390625,-0.01171875,[0. 0. 0. 0. 0. 0. 0. 0. 0.],-2.03125,-0.421875,9.54296875,[0. 0. 0. 0. 0. 0. 0. 0. 0.]
1742665593549851021,1742665593,546352984,imu_link,-0.01837158203125,0.0936279296875,0.00775146484375,0.99542236328125,[0. 0. 0. 0. 0. 0. 0. 0. 0.],0.005859375,0.005859375,-0.001953125,[0. 0. 0. 0. 0. 0. 0. 0. 0.],-2.03125,-0.421875,9.54296875,[0. 0. 0. 0. 0. 0. 0. 0. 0.]
1742665593581042021,1742665593,566622021,imu_link,-0.0184326171875,0.09344482421875,0.00762939453125,0.99542236328125,[0. 0. 0. 0. 0. 0. 0. 0. 0.],0.005859375,0.005859375,-0.001953125,[0. 0. 0. 0. 0. 0. 0. 0. 0.],-1.87890625,-0.34375,9.6484375,[0. 0. 0. 0. 0. 0. 0. 0. 0.]
1742665593597757984,1742665593,586288688,imu_link,-0.0184326171875,0.09344482421875,0.00762939453125,0.99542236328125,[0. 0. 0. 0. 0. 0. 0. 0. 0.],0.0,0.00390625,-0.01171875,[0. 0. 0. 0. 0. 0. 0. 0. 0.],-1.80078125,-0.26953125,9.5390625,[0. 0. 0. 0. 0. 0. 0. 0. 0.]
1742665593623913484,1742665593,606330058,imu_link,-0.0186767578125,0.09326171875,0.00738525390625,0.99542236328125,[0. 0. 0. 0. 0. 0. 0. 0. 0.],0.0,0.00390625,-0.01171875,[0. 0. 0. 0. 0. 0. 0. 0. 0.],-1.80078125,-0.26953125,9.5390625,[0. 0. 0. 0. 0. 0. 0. 0. 0.]
1742665593629806984,1742665593,626342558,imu_link,-0.0186767578125,0.09326171875,0.00738525390625,0.99542236328125,[0. 0. 0. 0. 0. 0. 0. 0. 0.],0.0,0.00390625,-0.01171875,[0. 0. 0. 0. 0. 0. 0. 0. 0.],-1.72265625,-0.3046875,9.65234375,[0. 0. 0. 0. 0. 0. 0. 0. 0.]
1742665593665939077,1742665593,646390317,imu_link,-0.018798828125,0.09307861328125,0.00714111328125,0.9954833984375,[0. 0. 0. 0. 0. 0. 0. 0. 0.],0.00390625,0.005859375,-0.0078125,[0. 0. 0. 0. 0. 0. 0. 0. 0.],-1.72265625,-0.34375,9.50390625,[0. 0. 0. 0. 0. 0. 0. 0. 0.]
1742665593671907169,1742665593,668475984,imu_link,-0.018798828125,0.09307861328125,0.00714111328125,0.9954833984375,[0. 0. 0. 0. 0. 0. 0. 0. 0.],0.00390625,0.005859375,-0.0078125,[0. 0. 0. 0. 0. 0. 0. 0. 0.],-1.72265625,-0.34375,9.50390625,[0. 0. 0. 0. 0. 0. 0. 0. 0.]
1742665593698356484,1742665593,686382003,imu_link,-0.018798828125,0.09307861328125,0.00714111328125,0.9954833984375,[0. 0. 0. 0. 0. 0. 0. 0. 0.],0.005859375,0.00390625,-0.01171875,[0. 0. 0. 0. 0. 0. 0. 0. 0.],-1.80078125,-0.3046875,9.58203125,[0. 0. 0. 0. 0. 0. 0. 0. 0.]
1742665593722812410,1742665593,706278040,imu_link,-0.01898193359375,0.09283447265625,0.00689697265625,0.9954833984375,[0. 0. 0. 0. 0. 0. 0. 0. 0.],0.005859375,0.00390625,-0.01171875,[0. 0. 0. 0. 0. 0. 0. 0. 0.],-1.87890625,-0.34375,9.609375,[0. 0. 0. 0. 0. 0. 0. 0. 0.]
1742665593729759595,1742665593,726335336,imu_link,-0.01898193359375,0.09283447265625,0.00689697265625,0.9954833984375,[0. 0. 0. 0. 0. 0. 0. 0. 0.],0.005859375,0.00390625,-0.01171875,[0. 0. 0. 0. 0. 0. 0. 0. 0.],-1.87890625,-0.34375,9.609375,[0. 0. 0. 0. 0. 0. 0. 0. 0.]
1742665593765882910,1742665593,746409225,imu_link,-0.01904296875,0.0926513671875,0.00665283203125,0.9954833984375,[0. 0. 0. 0. 0. 0. 0. 0. 0.],0.0078125,0.00390625,-0.005859375,[0. 0. 0. 0. 0. 0. 0. 0. 0.],-1.9921875,-0.3828125,9.5390625,[0. 0. 0. 0. 0. 0. 0. 0. 0.]
1742665593771784132,1742665593,768451465,imu_link,-0.01904296875,0.0926513671875,0.00665283203125,0.9954833984375,[0. 0. 0. 0. 0. 0. 0. 0. 0.],0.0078125,0.00390625,-0.005859375,[0. 0. 0. 0. 0. 0. 0. 0. 0.],-1.9921875,-0.3828125,9.5390625,[0. 0. 0. 0. 0. 0. 0. 0. 0.]
1742665593798262725,1742665593,786393243,imu_link,-0.01904296875,0.0926513671875,0.00665283203125,0.9954833984375,[0. 0. 0. 0. 0. 0. 0. 0. 0.],0.00390625,0.00390625,-0.01171875,[0. 0. 0. 0. 0. 0. 0. 0. 0.],-2.10546875,-0.3046875,9.578125,[0. 0. 0. 0. 0. 0. 0. 0. 0.]
1742665593820146188,1742665593,806281262,imu_link,-0.01904296875,0.09307861328125,0.0064697265625,0.9954833984375,[0. 0. 0. 0. 0. 0. 0. 0. 0.],0.00390625,0.00390625,-0.01171875,[0. 0. 0. 0. 0. 0. 0. 0. 0.],-2.0703125,-0.3046875,9.578125,[0. 0. 0. 0. 0. 0. 0. 0. 0.]
1742665593829810151,1742665593,826376021,imu_link,-0.01904296875,0.09307861328125,0.0064697265625,0.9954833984375,[0. 0. 0. 0. 0. 0. 0. 0. 0.],0.00390625,0.00390625,-0.01171875,[0. 0. 0. 0. 0. 0. 0. 0. 0.],-2.0703125,-0.3046875,9.578125,[0. 0. 0. 0. 0. 0. 0. 0. 0.]
1742665593866534021,1742665593,846346576,imu_link,-0.01898193359375,0.09375,0.00616455078125,0.99542236328125,[0. 0. 0. 0. 0. 0. 0. 0. 0.],0.001953125,0.00390625,-0.01171875,[0. 0. 0. 0. 0. 0. 0. 0. 0.],-2.0703125,-0.34375,9.58203125,[0. 0. 0. 0. 0. 0. 0. 0. 0.]
1742665593875398484,1742665593,869084817,imu_link,-0.01898193359375,0.09375,0.00616455078125,0.99542236328125,[0. 0. 0. 0. 0. 0. 0. 0. 0.],0.001953125,0.00390625,-0.01171875,[0. 0. 0. 0. 0. 0. 0. 0. 0.],-2.0703125,-0.34375,9.58203125,[0. 0. 0. 0. 0. 0. 0. 0. 0.]
1742665593892882614,1742665593,886328651,imu_link,-0.01898193359375,0.09375,0.00616455078125,0.99542236328125,[0. 0. 0. 0. 0. 0. 0. 0. 0.],0.0,-0.001953125,-0.00390625,[0. 0. 0. 0. 0. 0. 0. 0. 0.],-1.9921875,-0.34375,9.5,[0. 0. 0. 0. 0. 0. 0. 0. 0.]
1742665593920603762,1742665593,906287076,imu_link,-0.0189208984375,0.09423828125,0.006103515625,0.995361328125,[0. 0. 0. 0. 0. 0. 0. 0. 0.],0.0,-0.001953125,-0.00390625,[0. 0. 0. 0. 0. 0. 0. 0. 0.],-1.953125,-0.3828125,9.65234375,[0. 0. 0. 0. 0. 0. 0. 0. 0.]
1742665593931425058,1742665593,927025428,imu_link,-0.0189208984375,0.09423828125,0.006103515625,0.995361328125,[0. 0. 0. 0. 0. 0. 0. 0. 0.],0.0,-0.001953125,-0.00390625,[0. 0. 0. 0. 0. 0. 0. 0. 0.],-1.953125,-0.3828125,9.65234375,[0. 0. 0. 0. 0. 0. 0. 0. 0.]
1742665593972186021,1742665593,946402743,imu_link,-0.0189208984375,0.09490966796875,0.0059814453125,0.99530029296875,[0. 0. 0. 0. 0. 0. 0. 0. 0.],-0.001953125,0.005859375,-0.0078125,[0. 0. 0. 0. 0. 0. 0. 0. 0.],-1.9921875,-0.34375,9.4609375,[0. 0. 0. 0. 0. 0. 0. 0. 0.]
1742665593977541002,1742665593,974095947,imu_link,-0.0189208984375,0.09490966796875,0.0059814453125,0.99530029296875,[0. 0. 0. 0. 0. 0. 0. 0. 0.],-0.001953125,0.005859375,-0.0078125,[0. 0. 0. 0. 0. 0. 0. 0. 0.],-1.9921875,-0.34375,9.4609375,[0. 0. 0. 0. 0. 0. 0. 0. 0.]
1742665593993609299,1742665593,986363391,imu_link,-0.0189208984375,0.09490966796875,0.0059814453125,0.99530029296875,[0. 0. 0. 0. 0. 0. 0. 0. 0.],-0.001953125,0.001953125,-0.0078125,[0. 0. 0. 0. 0. 0. 0. 0. 0.],-1.9921875,-0.34375,9.4609375,[0. 0. 0. 0. 0. 0. 0. 0. 0.]
1742665594020771632,1742665594,6366799,imu_link,-0.01898193359375,0.0955810546875,0.005859375,0.9952392578125,[0. 0. 0. 0. 0. 0. 0. 0. 0.],-0.001953125,0.001953125,-0.0078125,[0. 0. 0. 0. 0. 0. 0. 0. 0.],-1.87890625,-0.3046875,9.65234375,[0. 0. 0. 0. 0. 0. 0. 0. 0.]
1742665594033173206,1742665594,26448650,imu_link,-0.01898193359375,0.0955810546875,0.005859375,0.9952392578125,[0. 0. 0. 0. 0. 0. 0. 0. 0.],-0.001953125,0.001953125,-0.0078125,[0. 0. 0. 0. 0. 0. 0. 0. 0.],-1.87890625,-0.3046875,9.65234375,[0. 0. 0. 0. 0. 0. 0. 0. 0.]
1742665594049847521,1742665594,46330391,imu_link,-0.01898193359375,0.0955810546875,0.005859375,0.9952392578125,[0. 0. 0. 0. 0. 0. 0. 0. 0.],-0.001953125,0.005859375,-0.005859375,[0. 0. 0. 0. 0. 0. 0. 0. 0.],-1.83984375,-0.3828125,9.50390625,[0. 0. 0. 0. 0. 0. 0. 0. 0.]
1742665594080310780,1742665594,66398687,imu_link,-0.0189208984375,0.09613037109375,0.0057373046875,0.99517822265625,[0. 0. 0. 0. 0. 0. 0. 0. 0.],-0.001953125,0.005859375,-0.005859375,[0. 0. 0. 0. 0. 0. 0. 0. 0.],-1.87890625,-0.3828125,9.609375,[0. 0. 0. 0. 0. 0. 0. 0. 0.]
1742665594093464650,1742665594,86317558,imu_link,-0.0189208984375,0.09613037109375,0.0057373046875,0.99517822265625,[0. 0. 0. 0. 0. 0. 0. 0. 0.],0.0,0.0078125,-0.00390625,[0. 0. 0. 0. 0. 0. 0. 0. 0.],-1.87890625,-0.3828125,9.609375,[0. 0. 0. 0. 0. 0. 0. 0. 0.]
1742665594119507910,1742665594,106348780,imu_link,-0.01898193359375,0.09674072265625,0.005615234375,0.9951171875,[0. 0. 0. 0. 0. 0. 0. 0. 0.],0.0,0.0078125,-0.00390625,[0. 0. 0. 0. 0. 0. 0. 0. 0.],-1.9140625,-0.3828125,9.65234375,[0. 0. 0. 0. 0. 0. 0. 0. 0.]
1742665594133126095,1742665594,126455484,imu_link,-0.01898193359375,0.09674072265625,0.005615234375,0.9951171875,[0. 0. 0. 0. 0. 0. 0. 0. 0.],0.0,0.0078125,-0.00390625,[0. 0. 0. 0. 0. 0. 0. 0. 0.],-1.9921875,-0.3828125,9.5,[0. 0. 0. 0. 0. 0. 0. 0. 0.]
1742665594149783539,1742665594,146356132,imu_link,-0.01898193359375,0.09674072265625,0.005615234375,0.9951171875,[0. 0. 0. 0. 0. 0. 0. 0. 0.],0.00390625,0.005859375,0.0,[0. 0. 0. 0. 0. 0. 0. 0. 0.],-1.9921875,-0.3828125,9.5,[0. 0. 0. 0. 0. 0. 0. 0. 0.]
1742665594180453650,1742665594,166361484,imu_link,-0.01898193359375,0.09716796875,0.00555419921875,0.99505615234375,[0. 0. 0. 0. 0. 0. 0. 0. 0.],0.00390625,0.005859375,0.0,[0. 0. 0. 0. 0. 0. 0. 0. 0.],-1.9921875,-0.26953125,9.578125,[0. 0. 0. 0. 0. 0. 0. 0. 0.]
1742665594198110169,1742665594,186322836,imu_link,-0.01898193359375,0.09716796875,0.00555419921875,0.99505615234375,[0. 0. 0. 0. 0. 0. 0. 0. 0.],0.0,0.001953125,-0.005859375,[0. 0. 0. 0. 0. 0. 0. 0. 0.],-1.9921875,-0.3046875,9.54296875,[0. 0. 0. 0. 0. 0. 0. 0. 0.]
1742665594222653317,1742665594,206341595,imu_link,-0.0189208984375,0.09747314453125,0.00543212890625,0.99505615234375,[0. 0. 0. 0. 0. 0. 0. 0. 0.],0.0,0.001953125,-0.005859375,[0. 0. 0. 0. 0. 0. 0. 0. 0.],-1.9921875,-0.3046875,9.54296875,[0. 0. 0. 0. 0. 0. 0. 0. 0.]
1742665594229764132,1742665594,226353854,imu_link,-0.0189208984375,0.09747314453125,0.00543212890625,0.99505615234375,[0. 0. 0. 0. 0. 0. 0. 0. 0.],0.0,0.001953125,-0.005859375,[0. 0. 0. 0. 0. 0. 0. 0. 0.],-1.953125,-0.3828125,9.5390625,[0. 0. 0. 0. 0. 0. 0. 0. 0.]
1742665594266249687,1742665594,246496261,imu_link,-0.01873779296875,0.09783935546875,0.00537109375,0.9949951171875,[0. 0. 0. 0. 0. 0. 0. 0. 0.],0.0,0.005859375,0.001953125,[0. 0. 0. 0. 0. 0. 0. 0. 0.],-2.03125,-0.34375,9.61328125,[0. 0. 0. 0. 0. 0. 0. 0. 0.]
1742665594271561484,1742665594,268987965,imu_link,-0.01873779296875,0.09783935546875,0.00537109375,0.9949951171875,[0. 0. 0. 0. 0. 0. 0. 0. 0.],0.0,0.005859375,0.001953125,[0. 0. 0. 0. 0. 0. 0. 0. 0.],-2.03125,-0.34375,9.61328125,[0. 0. 0. 0. 0. 0. 0. 0. 0.]
1742665594297869076,1742665594,286411298,imu_link,-0.01873779296875,0.09783935546875,0.00537109375,0.9949951171875,[0. 0. 0. 0. 0. 0. 0. 0. 0.],-0.005859375,0.00390625,-0.00390625,[0. 0. 0. 0. 0. 0. 0. 0. 0.],-1.953125,-0.34375,9.5390625,[0. 0. 0. 0. 0. 0. 0. 0. 0.]
1742665594322770113,1742665594,306333428,imu_link,-0.0186767578125,0.09814453125,0.00531005859375,0.9949951171875,[0. 0. 0. 0. 0. 0. 0. 0. 0.],-0.005859375,0.00390625,-0.00390625,[0. 0. 0. 0. 0. 0. 0. 0. 0.],-1.953125,-0.34375,9.5390625,[0. 0. 0. 0. 0. 0. 0. 0. 0.]
1742665594329803391,1742665594,326348798,imu_link,-0.0186767578125,0.09814453125,0.00531005859375,0.9949951171875,[0. 0. 0. 0. 0. 0. 0. 0. 0.],-0.005859375,0.00390625,-0.00390625,[0. 0. 0. 0. 0. 0. 0. 0. 0.],-1.953125,-0.34375,9.5390625,[0. 0. 0. 0. 0. 0. 0. 0. 0.]
1742665594368203521,1742665594,347081984,imu_link,-0.01861572265625,0.09844970703125,0.0052490234375,0.99493408203125,[0. 0. 0. 0. 0. 0. 0. 0. 0.],-0.00390625,0.00390625,0.0,[0. 0. 0. 0. 0. 0. 0. 0. 0.],-1.9921875,-0.23046875,9.58203125,[0. 0. 0. 0. 0. 0. 0. 0. 0.]
1742665594373340113,1742665594,371459984,imu_link,-0.01861572265625,0.09844970703125,0.0052490234375,0.99493408203125,[0. 0. 0. 0. 0. 0. 0. 0. 0.],-0.00390625,0.00390625,0.0,[0. 0. 0. 0. 0. 0. 0. 0. 0.],-1.9921875,-0.23046875,9.58203125,[0. 0. 0. 0. 0. 0. 0. 0. 0.]
1742665594397866335,1742665594,386424835,imu_link,-0.01861572265625,0.09844970703125,0.0052490234375,0.99493408203125,[0. 0. 0. 0. 0. 0. 0. 0. 0.],-0.001953125,0.00390625,-0.0078125,[0. 0. 0. 0. 0. 0. 0. 0. 0.],-1.953125,-0.3046875,9.609375,[0. 0. 0. 0. 0. 0. 0. 0. 0.]
1742665594420226224,1742665594,406345632,imu_link,-0.0185546875,0.0987548828125,0.00506591796875,0.99493408203125,[0. 0. 0. 0. 0. 0. 0. 0. 0.],-0.001953125,0.00390625,-0.0078125,[0. 0. 0. 0. 0. 0. 0. 0. 0.],-1.9921875,-0.34375,9.5390625,[0. 0. 0. 0. 0. 0. 0. 0. 0.]
1742665594429908687,1742665594,426405984,imu_link,-0.0185546875,0.0987548828125,0.00506591796875,0.99493408203125,[0. 0. 0. 0. 0. 0. 0. 0. 0.],-0.001953125,0.00390625,-0.0078125,[0. 0. 0. 0. 0. 0. 0. 0. 0.],-1.9921875,-0.34375,9.5390625,[0. 0. 0. 0. 0. 0. 0. 0. 0.]
1742665594467172132,1742665594,446382854,imu_link,-0.01861572265625,0.09906005859375,0.00494384765625,0.994873046875,[0. 0. 0. 0. 0. 0. 0. 0. 0.],-0.005859375,0.00390625,-0.005859375,[0. 0. 0. 0. 0. 0. 0. 0. 0.],-1.9921875,-0.34375,9.578125,[0. 0. 0. 0. 0. 0. 0. 0. 0.]
1742665594471657965,1742665594,469849428,imu_link,-0.01861572265625,0.09906005859375,0.00494384765625,0.994873046875,[0. 0. 0. 0. 0. 0. 0. 0. 0.],-0.005859375,0.00390625,-0.005859375,[0. 0. 0. 0. 0. 0. 0. 0. 0.],-1.9921875,-0.34375,9.578125,[0. 0. 0. 0. 0. 0. 0. 0. 0.]
1742665594493876576,1742665594,486397946,imu_link,-0.01861572265625,0.09906005859375,0.00494384765625,0.994873046875,[0. 0. 0. 0. 0. 0. 0. 0. 0.],-0.00390625,0.00390625,-0.00390625,[0. 0. 0. 0. 0. 0. 0. 0. 0.],-1.9921875,-0.3828125,9.578125,[0. 0. 0. 0. 0. 0. 0. 0. 0.]
1742665594520466335,1742665594,506420576,imu_link,-0.01861572265625,0.09930419921875,0.0048828125,0.994873046875,[0. 0. 0. 0. 0. 0. 0. 0. 0.],-0.00390625,0.00390625,-0.00390625,[0. 0. 0. 0. 0. 0. 0. 0. 0.],-1.9921875,-0.34375,9.578125,[0. 0. 0. 0. 0. 0. 0. 0. 0.]
1742665594529954354,1742665594,526360891,imu_link,-0.01861572265625,0.09930419921875,0.0048828125,0.994873046875,[0. 0. 0. 0. 0. 0. 0. 0. 0.],-0.00390625,0.00390625,-0.00390625,[0. 0. 0. 0. 0. 0. 0. 0. 0.],-1.9921875,-0.34375,9.578125,[0. 0. 0. 0. 0. 0. 0. 0. 0.]
1742665594570564021,1742665594,546422372,imu_link,-0.0186767578125,0.09954833984375,0.00482177734375,0.994873046875,[0. 0. 0. 0. 0. 0. 0. 0. 0.],0.001953125,0.005859375,0.0,[0. 0. 0. 0. 0. 0. 0. 0. 0.],-1.9921875,-0.34375,9.5390625,[0. 0. 0. 0. 0. 0. 0. 0. 0.]
1742665594576389280,1742665594,572631650,imu_link,-0.0186767578125,0.09954833984375,0.00482177734375,0.994873046875,[0. 0. 0. 0. 0. 0. 0. 0. 0.],0.001953125,0.005859375,0.0,[0. 0. 0. 0. 0. 0. 0. 0. 0.],-1.9921875,-0.3046875,9.58203125,[0. 0. 0. 0. 0. 0. 0. 0. 0.]
1742665594592947298,1742665594,586399076,imu_link,-0.0186767578125,0.09954833984375,0.00482177734375,0.994873046875,[0. 0. 0. 0. 0. 0. 0. 0. 0.],0.00390625,0.005859375,-0.00390625,[0. 0. 0. 0. 0. 0. 0. 0. 0.],-1.9921875,-0.3046875,9.58203125,[0. 0. 0. 0. 0. 0. 0. 0. 0.]
1742665594619764391,1742665594,606409243,imu_link,-0.0186767578125,0.099853515625,0.0047607421875,0.99481201171875,[0. 0. 0. 0. 0. 0. 0. 0. 0.],0.00390625,0.005859375,-0.00390625,[0. 0. 0. 0. 0. 0. 0. 0. 0.],-1.9921875,-0.3046875,9.58203125,[0. 0. 0. 0. 0. 0. 0. 0. 0.]
1742665594629108483,1742665594,626340391,imu_link,-0.0186767578125,0.099853515625,0.0047607421875,0.99481201171875,[0. 0. 0. 0. 0. 0. 0. 0. 0.],0.00390625,0.005859375,-0.00390625,[0. 0. 0. 0. 0. 0. 0. 0. 0.],-1.9921875,-0.3046875,9.58203125,[0. 0. 0. 0. 0. 0. 0. 0. 0.]
1742665594649840391,1742665594,646375020,imu_link,-0.0186767578125,0.099853515625,0.0047607421875,0.99481201171875,[0. 0. 0. 0. 0. 0. 0. 0. 0.],0.005859375,0.001953125,-0.005859375,[0. 0. 0. 0. 0. 0. 0. 0. 0.],-1.9921875,-0.34375,9.4609375,[0. 0. 0. 0. 0. 0. 0. 0. 0.]
1742665594679853909,1742665594,666429039,imu_link,-0.0186767578125,0.10003662109375,0.004638671875,0.99481201171875,[0. 0. 0. 0. 0. 0. 0. 0. 0.],0.005859375,0.001953125,-0.005859375,[0. 0. 0. 0. 0. 0. 0. 0. 0.],-1.953125,-0.3828125,9.65234375,[0. 0. 0. 0. 0. 0. 0. 0. 0.]
1742665594693325706,1742665594,686340187,imu_link,-0.0186767578125,0.10003662109375,0.004638671875,0.99481201171875,[0. 0. 0. 0. 0. 0. 0. 0. 0.],0.0078125,0.001953125,0.001953125,[0. 0. 0. 0. 0. 0. 0. 0. 0.],-1.953125,-0.3828125,9.65234375,[0. 0. 0. 0. 0. 0. 0. 0. 0.]
1742665594719549909,1742665594,706331539,imu_link,-0.0185546875,0.1002197265625,0.004638671875,0.99481201171875,[0. 0. 0. 0. 0. 0. 0. 0. 0.],0.0078125,0.001953125,0.001953125,[0. 0. 0. 0. 0. 0. 0. 0. 0.],-1.9921875,-0.3828125,9.578125,[0. 0. 0. 0. 0. 0. 0. 0. 0.]
1742665594737244872,1742665594,726374669,imu_link,-0.0185546875,0.1002197265625,0.004638671875,0.99481201171875,[0. 0. 0. 0. 0. 0. 0. 0. 0.],0.0078125,0.001953125,0.001953125,[0. 0. 0. 0. 0. 0. 0. 0. 0.],-2.03125,-0.34375,9.578125,[0. 0. 0. 0. 0. 0. 0. 0. 0.]
1742665594750041706,1742665594,746495557,imu_link,-0.0185546875,0.1002197265625,0.004638671875,0.99481201171875,[0. 0. 0. 0. 0. 0. 0. 0. 0.],0.009765625,0.005859375,-0.005859375,[0. 0. 0. 0. 0. 0. 0. 0. 0.],-2.03125,-0.34375,9.578125,[0. 0. 0. 0. 0. 0. 0. 0. 0.]
1742665594780185706,1742665594,766428928,imu_link,-0.01849365234375,0.10040283203125,0.0045166015625,0.9947509765625,[0. 0. 0. 0. 0. 0. 0. 0. 0.],0.009765625,0.005859375,-0.005859375,[0. 0. 0. 0. 0. 0. 0. 0. 0.],-1.9921875,-0.34375,9.578125,[0. 0. 0. 0. 0. 0. 0. 0. 0.]
1742665594797204446,1742665594,786386317,imu_link,-0.01849365234375,0.10040283203125,0.0045166015625,0.9947509765625,[0. 0. 0. 0. 0. 0. 0. 0. 0.],0.0078125,0.005859375,-0.001953125,[0. 0. 0. 0. 0. 0. 0. 0. 0.],-1.9921875,-0.3046875,9.54296875,[0. 0. 0. 0. 0. 0. 0. 0. 0.]
1742665594823401243,1742665594,806327909,imu_link,-0.0184326171875,0.1005859375,0.00445556640625,0.9947509765625,[0. 0. 0. 0. 0. 0. 0. 0. 0.],0.0078125,0.005859375,-0.001953125,[0. 0. 0. 0. 0. 0. 0. 0. 0.],-1.9921875,-0.3046875,9.54296875,[0. 0. 0. 0. 0. 0. 0. 0. 0.]
1742665594829405094,1742665594,826553872,imu_link,-0.0184326171875,0.1005859375,0.00445556640625,0.9947509765625,[0. 0. 0. 0. 0. 0. 0. 0. 0.],0.0078125,0.005859375,-0.001953125,[0. 0. 0. 0. 0. 0. 0. 0. 0.],-1.9921875,-0.26953125,9.5390625,[0. 0. 0. 0. 0. 0. 0. 0. 0.]
1742665594866986428,1742665594,846474298,imu_link,-0.0184326171875,0.10076904296875,0.00433349609375,0.9947509765625,[0. 0. 0. 0. 0. 0. 0. 0. 0.],0.005859375,0.00390625,-0.009765625,[0. 0. 0. 0. 0. 0. 0. 0. 0.],-1.9921875,-0.34375,9.61328125,[0. 0. 0. 0. 0. 0. 0. 0. 0.]
1742665594871496131,1742665594,869690576,imu_link,-0.0184326171875,0.10076904296875,0.00433349609375,0.9947509765625,[0. 0. 0. 0. 0. 0. 0. 0. 0.],0.005859375,0.00390625,-0.009765625,[0. 0. 0. 0. 0. 0. 0. 0. 0.],-1.9921875,-0.34375,9.61328125,[0. 0. 0. 0. 0. 0. 0. 0. 0.]
1742665594897218854,1742665594,886390817,imu_link,-0.0184326171875,0.10076904296875,0.00433349609375,0.9947509765625,[0. 0. 0. 0. 0. 0. 0. 0. 0.],0.001953125,0.005859375,-0.0078125,[0. 0. 0. 0. 0. 0. 0. 0. 0.],-1.9921875,-0.34375,9.5390625,[0. 0. 0. 0. 0. 0. 0. 0. 0.]
1742665594921809391,1742665594,906345557,imu_link,-0.01849365234375,0.1009521484375,0.00408935546875,0.99468994140625,[0. 0. 0. 0. 0. 0. 0. 0. 0.],0.001953125,0.005859375,-0.0078125,[0. 0. 0. 0. 0. 0. 0. 0. 0.],-1.953125,-0.3828125,9.578125,[0. 0. 0. 0. 0. 0. 0. 0. 0.]
1742665594929256780,1742665594,926394243,imu_link,-0.01849365234375,0.1009521484375,0.00408935546875,0.99468994140625,[0. 0. 0. 0. 0. 0. 0. 0. 0.],0.001953125,0.005859375,-0.0078125,[0. 0. 0. 0. 0. 0. 0. 0. 0.],-1.953125,-0.3828125,9.578125,[0. 0. 0. 0. 0. 0. 0. 0. 0.]
1742665594967188298,1742665594,946383650,imu_link,-0.01849365234375,0.10107421875,0.00408935546875,0.99468994140625,[0. 0. 0. 0. 0. 0. 0. 0. 0.],0.0,0.001953125,0.0,[0. 0. 0. 0. 0. 0. 0. 0. 0.],-1.953125,-0.34375,9.5390625,[0. 0. 0. 0. 0. 0. 0. 0. 0.]
1742665594971706446,1742665594,969939317,imu_link,-0.01849365234375,0.10107421875,0.00408935546875,0.99468994140625,[0. 0. 0. 0. 0. 0. 0. 0. 0.],0.0,0.001953125,0.0,[0. 0. 0. 0. 0. 0. 0. 0. 0.],-1.953125,-0.34375,9.5390625,[0. 0. 0. 0. 0. 0. 0. 0. 0.]
1742665594997142020,1742665594,986356780,imu_link,-0.01849365234375,0.10107421875,0.00408935546875,0.99468994140625,[0. 0. 0. 0. 0. 0. 0. 0. 0.],-0.0078125,0.001953125,-0.0078125,[0. 0. 0. 0. 0. 0. 0. 0. 0.],-1.9921875,-0.3046875,9.58203125,[0. 0. 0. 0. 0. 0. 0. 0. 0.]
1742665595019433409,1742665595,6335131,imu_link,-0.0186767578125,0.10113525390625,0.00390625,0.99468994140625,[0. 0. 0. 0. 0. 0. 0. 0. 0.],-0.0078125,0.001953125,-0.0078125,[0. 0. 0. 0. 0. 0. 0. 0. 0.],-2.03125,-0.34375,9.578125,[0. 0. 0. 0. 0. 0. 0. 0. 0.]
1742665595029305409,1742665595,26352946,imu_link,-0.0186767578125,0.10113525390625,0.00390625,0.99468994140625,[0. 0. 0. 0. 0. 0. 0. 0. 0.],-0.0078125,0.001953125,-0.0078125,[0. 0. 0. 0. 0. 0. 0. 0. 0.],-2.03125,-0.34375,9.578125,[0. 0. 0. 0. 0. 0. 0. 0. 0.]
1742665595066472705,1742665595,46392335,imu_link,-0.018798828125,0.101318359375,0.0037841796875,0.99468994140625,[0. 0. 0. 0. 0. 0. 0. 0. 0.],-0.009765625,0.00390625,-0.00390625,[0. 0. 0. 0. 0. 0. 0. 0. 0.],-2.0703125,-0.3046875,9.5390625,[0. 0. 0. 0. 0. 0. 0. 0. 0.]
1742665595072309279,1742665595,69424557,imu_link,-0.018798828125,0.101318359375,0.0037841796875,0.99468994140625,[0. 0. 0. 0. 0. 0. 0. 0. 0.],-0.009765625,0.00390625,-0.00390625,[0. 0. 0. 0. 0. 0. 0. 0. 0.],-2.0703125,-0.3046875,9.5390625,[0. 0. 0. 0. 0. 0. 0. 0. 0.]
1742665595092196057,1742665595,86361613,imu_link,-0.018798828125,0.101318359375,0.0037841796875,0.99468994140625,[0. 0. 0. 0. 0. 0. 0. 0. 0.],-0.0078125,0.00390625,-0.005859375,[0. 0. 0. 0. 0. 0. 0. 0. 0.],-2.0703125,-0.34375,9.609375,[0. 0. 0. 0. 0. 0. 0. 0. 0.]
1742665595119315076,1742665595,106484668,imu_link,-0.01885986328125,0.1014404296875,0.003662109375,0.99462890625,[0. 0. 0. 0. 0. 0. 0. 0. 0.],-0.0078125,0.00390625,-0.005859375,[0. 0. 0. 0. 0. 0. 0. 0. 0.],-2.0703125,-0.34375,9.50390625,[0. 0. 0. 0. 0. 0. 0. 0. 0.]
1742665595129173131,1742665595,126396131,imu_link,-0.01885986328125,0.1014404296875,0.003662109375,0.99462890625,[0. 0. 0. 0. 0. 0. 0. 0. 0.],-0.0078125,0.00390625,-0.005859375,[0. 0. 0. 0. 0. 0. 0. 0. 0.],-2.0703125,-0.34375,9.50390625,[0. 0. 0. 0. 0. 0. 0. 0. 0.]
1742665595165815150,1742665595,146430928,imu_link,-0.0189208984375,0.1015625,0.00360107421875,0.99462890625,[0. 0. 0. 0. 0. 0. 0. 0. 0.],-0.0078125,0.001953125,-0.001953125,[0. 0. 0. 0. 0. 0. 0. 0. 0.],-1.953125,-0.421875,9.58203125,[0. 0. 0. 0. 0. 0. 0. 0. 0.]
1742665595175308983,1742665595,171851002,imu_link,-0.0189208984375,0.1015625,0.00360107421875,0.99462890625,[0. 0. 0. 0. 0. 0. 0. 0. 0.],-0.0078125,0.001953125,-0.001953125,[0. 0. 0. 0. 0. 0. 0. 0. 0.],-1.9140625,-0.3828125,9.5390625,[0. 0. 0. 0. 0. 0. 0. 0. 0.]
1742665595192303779,1742665595,186386298,imu_link,-0.0189208984375,0.1015625,0.00360107421875,0.99462890625,[0. 0. 0. 0. 0. 0. 0. 0. 0.],-0.005859375,0.00390625,-0.00390625,[0. 0. 0. 0. 0. 0. 0. 0. 0.],-1.9140625,-0.3828125,9.5390625,[0. 0. 0. 0. 0. 0. 0. 0. 0.]
1742665595220224483,1742665595,206446316,imu_link,-0.01898193359375,0.10174560546875,0.00360107421875,0.99462890625,[0. 0. 0. 0. 0. 0. 0. 0. 0.],-0.005859375,0.00390625,-0.00390625,[0. 0. 0. 0. 0. 0. 0. 0. 0.],-1.9921875,-0.3046875,9.609375,[0. 0. 0. 0. 0. 0. 0. 0. 0.]
1742665595228509705,1742665595,226346724,imu_link,-0.01898193359375,0.10174560546875,0.00360107421875,0.99462890625,[0. 0. 0. 0. 0. 0. 0. 0. 0.],-0.005859375,0.00390625,-0.00390625,[0. 0. 0. 0. 0. 0. 0. 0. 0.],-1.9921875,-0.3046875,9.609375,[0. 0. 0. 0. 0. 0. 0. 0. 0.]
1742665595249217187,1742665595,246350335,imu_link,-0.01898193359375,0.10174560546875,0.00360107421875,0.99462890625,[0. 0. 0. 0. 0. 0. 0. 0. 0.],-0.00390625,0.00390625,0.00390625,[0. 0. 0. 0. 0. 0. 0. 0. 0.],-1.9921875,-0.34375,9.5390625,[0. 0. 0. 0. 0. 0. 0. 0. 0.]
1742665595280071002,1742665595,266433353,imu_link,-0.0189208984375,0.10186767578125,0.00360107421875,0.99462890625,[0. 0. 0. 0. 0. 0. 0. 0. 0.],-0.00390625,0.00390625,0.00390625,[0. 0. 0. 0. 0. 0. 0. 0. 0.],-1.953125,-0.3046875,9.58203125,[0. 0. 0. 0. 0. 0. 0. 0. 0.]
1742665595290189298,1742665595,286319316,imu_link,-0.0189208984375,0.10186767578125,0.00360107421875,0.99462890625,[0. 0. 0. 0. 0. 0. 0. 0. 0.],-0.005859375,0.001953125,-0.009765625,[0. 0. 0. 0. 0. 0. 0. 0. 0.],-1.953125,-0.3046875,9.58203125,[0. 0. 0. 0. 0. 0. 0. 0. 0.]
1742665595319477909,1742665595,306431835,imu_link,-0.0189208984375,0.10198974609375,0.00347900390625,0.99462890625,[0. 0. 0. 0. 0. 0. 0. 0. 0.],-0.005859375,0.001953125,-0.009765625,[0. 0. 0. 0. 0. 0. 0. 0. 0.],-1.953125,-0.34375,9.5390625,[0. 0. 0. 0. 0. 0. 0. 0. 0.]
1742665595337132113,1742665595,326341150,imu_link,-0.0189208984375,0.10198974609375,0.00347900390625,0.99462890625,[0. 0. 0. 0. 0. 0. 0. 0. 0.],-0.005859375,0.00390625,-0.005859375,[0. 0. 0. 0. 0. 0. 0. 0. 0.],-1.9921875,-0.3828125,9.61328125,[0. 0. 0. 0. 0. 0. 0. 0. 0.]
1742665595349224057,1742665595,346335076,imu_link,-0.0189208984375,0.10198974609375,0.00347900390625,0.99462890625,[0. 0. 0. 0. 0. 0. 0. 0. 0.],-0.005859375,0.00390625,-0.005859375,[0. 0. 0. 0. 0. 0. 0. 0. 0.],-1.9921875,-0.3828125,9.61328125,[0. 0. 0. 0. 0. 0. 0. 0. 0.]
1742665595379120464,1742665595,366432594,imu_link,-0.01898193359375,0.10211181640625,0.0032958984375,0.99456787109375,[0. 0. 0. 0. 0. 0. 0. 0. 0.],-0.005859375,0.00390625,-0.005859375,[0. 0. 0. 0. 0. 0. 0. 0. 0.],-2.03125,-0.3828125,9.5390625,[0. 0. 0. 0. 0. 0. 0. 0. 0.]
1742665595396561242,1742665595,386332761,imu_link,-0.01898193359375,0.10211181640625,0.0032958984375,0.99456787109375,[0. 0. 0. 0. 0. 0. 0. 0. 0.],-0.001953125,0.001953125,-0.001953125,[0. 0. 0. 0. 0. 0. 0. 0. 0.],-2.0703125,-0.3046875,9.578125,[0. 0. 0. 0. 0. 0. 0. 0. 0.]
1742665595418137668,1742665595,406413168,imu_link,-0.01898193359375,0.10223388671875,0.0032958984375,0.99456787109375,[0. 0. 0. 0. 0. 0. 0. 0. 0.],-0.001953125,0.001953125,-0.001953125,[0. 0. 0. 0. 0. 0. 0. 0. 0.],-2.0703125,-0.3046875,9.578125,[0. 0. 0. 0. 0. 0. 0. 0. 0.]
1742665595428869872,1742665595,426661131,imu_link,-0.01898193359375,0.10223388671875,0.0032958984375,0.99456787109375,[0. 0. 0. 0. 0. 0. 0. 0. 0.],-0.001953125,0.001953125,-0.001953125,[0. 0. 0. 0. 0. 0. 0. 0. 0.],-2.03125,-0.34375,9.578125,[0. 0. 0. 0. 0. 0. 0. 0. 0.]
1742665595463001927,1742665595,446352761,imu_link,-0.01910400390625,0.102294921875,0.003173828125,0.99456787109375,[0. 0. 0. 0. 0. 0. 0. 0. 0.],-0.005859375,-0.001953125,-0.009765625,[0. 0. 0. 0. 0. 0. 0. 0. 0.],-2.03125,-0.34375,9.578125,[0. 0. 0. 0. 0. 0. 0. 0. 0.]
1742665595468502835,1742665595,466342168,imu_link,-0.01910400390625,0.102294921875,0.003173828125,0.99456787109375,[0. 0. 0. 0. 0. 0. 0. 0. 0.],-0.005859375,-0.001953125,-0.009765625,[0. 0. 0. 0. 0. 0. 0. 0. 0.],-2.03125,-0.34375,9.5390625,[0. 0. 0. 0. 0. 0. 0. 0. 0.]
1742665595497352927,1742665595,486441872,imu_link,-0.01910400390625,0.102294921875,0.003173828125,0.99456787109375,[0. 0. 0. 0. 0. 0. 0. 0. 0.],-0.001953125,0.00390625,-0.00390625,[0. 0. 0. 0. 0. 0. 0. 0. 0.],-1.9921875,-0.3828125,9.578125,[0. 0. 0. 0. 0. 0. 0. 0. 0.]
1742665595523552446,1742665595,506446964,imu_link,-0.01922607421875,0.10235595703125,0.00311279296875,0.99456787109375,[0. 0. 0. 0. 0. 0. 0. 0. 0.],-0.001953125,0.00390625,-0.00390625,[0. 0. 0. 0. 0. 0. 0. 0. 0.],-2.0703125,-0.3828125,9.609375,[0. 0. 0. 0. 0. 0. 0. 0. 0.]
1742665595528803520,1742665595,526353150,imu_link,-0.01922607421875,0.10235595703125,0.00311279296875,0.99456787109375,[0. 0. 0. 0. 0. 0. 0. 0. 0.],-0.001953125,0.00390625,-0.00390625,[0. 0. 0. 0. 0. 0. 0. 0. 0.],-2.0703125,-0.3828125,9.609375,[0. 0. 0. 0. 0. 0. 0. 0. 0.]
1742665595563557835,1742665595,546388038,imu_link,-0.01934814453125,0.10247802734375,0.00299072265625,0.99456787109375,[0. 0. 0. 0. 0. 0. 0. 0. 0.],0.0,0.00390625,-0.005859375,[0. 0. 0. 0. 0. 0. 0. 0. 0.],-2.03125,-0.34375,9.5390625,[0. 0. 0. 0. 0. 0. 0. 0. 0.]
1742665595568711613,1742665595,566385353,imu_link,-0.01934814453125,0.10247802734375,0.00299072265625,0.99456787109375,[0. 0. 0. 0. 0. 0. 0. 0. 0.],0.0,0.00390625,-0.005859375,[0. 0. 0. 0. 0. 0. 0. 0. 0.],-2.03125,-0.34375,9.5390625,[0. 0. 0. 0. 0. 0. 0. 0. 0.]
1742665595597693853,1742665595,586397650,imu_link,-0.01934814453125,0.10247802734375,0.00299072265625,0.99456787109375,[0. 0. 0. 0. 0. 0. 0. 0. 0.],0.0,0.001953125,0.00390625,[0. 0. 0. 0. 0. 0. 0. 0. 0.],-1.953125,-0.421875,9.54296875,[0. 0. 0. 0. 0. 0. 0. 0. 0.]
1742665595618887279,1742665595,606778150,imu_link,-0.0194091796875,0.1025390625,0.0030517578125,0.9945068359375,[0. 0. 0. 0. 0. 0. 0. 0. 0.],0.0,0.001953125,0.00390625,[0. 0. 0. 0. 0. 0. 0. 0. 0.],-1.9921875,-0.34375,9.61328125,[0. 0. 0. 0. 0. 0. 0. 0. 0.]
1742665595628537372,1742665595,626369946,imu_link,-0.0194091796875,0.1025390625,0.0030517578125,0.9945068359375,[0. 0. 0. 0. 0. 0. 0. 0. 0.],0.0,0.001953125,0.00390625,[0. 0. 0. 0. 0. 0. 0. 0. 0.],-1.9921875,-0.34375,9.61328125,[0. 0. 0. 0. 0. 0. 0. 0. 0.]
1742665595663938316,1742665595,646397409,imu_link,-0.0194091796875,0.10260009765625,0.0030517578125,0.9945068359375,[0. 0. 0. 0. 0. 0. 0. 0. 0.],0.00390625,-0.001953125,-0.001953125,[0. 0. 0. 0. 0. 0. 0. 0. 0.],-2.03125,-0.34375,9.578125,[0. 0. 0. 0. 0. 0. 0. 0. 0.]
1742665595668768872,1742665595,666621705,imu_link,-0.0194091796875,0.10260009765625,0.0030517578125,0.9945068359375,[0. 0. 0. 0. 0. 0. 0. 0. 0.],0.00390625,-0.001953125,-0.001953125,[0. 0. 0. 0. 0. 0. 0. 0. 0.],-2.03125,-0.34375,9.578125,[0. 0. 0. 0. 0. 0. 0. 0. 0.]
1742665595697769075,1742665595,686421464,imu_link,-0.0194091796875,0.10260009765625,0.0030517578125,0.9945068359375,[0. 0. 0. 0. 0. 0. 0. 0. 0.],0.00390625,0.001953125,-0.00390625,[0. 0. 0. 0. 0. 0. 0. 0. 0.],-2.0703125,-0.3828125,9.54296875,[0. 0. 0. 0. 0. 0. 0. 0. 0.]
1742665595719862872,1742665595,706442149,imu_link,-0.01934814453125,0.1026611328125,0.0030517578125,0.9945068359375,[0. 0. 0. 0. 0. 0. 0. 0. 0.],0.00390625,0.001953125,-0.00390625,[0. 0. 0. 0. 0. 0. 0. 0. 0.],-2.03125,-0.3828125,9.61328125,[0. 0. 0. 0. 0. 0. 0. 0. 0.]
1742665595728558112,1742665595,726368131,imu_link,-0.01934814453125,0.1026611328125,0.0030517578125,0.9945068359375,[0. 0. 0. 0. 0. 0. 0. 0. 0.],0.00390625,0.001953125,-0.00390625,[0. 0. 0. 0. 0. 0. 0. 0. 0.],-2.03125,-0.3828125,9.61328125,[0. 0. 0. 0. 0. 0. 0. 0. 0.]
1742665595763711464,1742665595,746522001,imu_link,-0.019287109375,0.1026611328125,0.00299072265625,0.9945068359375,[0. 0. 0. 0. 0. 0. 0. 0. 0.],0.005859375,-0.005859375,-0.00390625,[0. 0. 0. 0. 0. 0. 0. 0. 0.],-2.03125,-0.3046875,9.58203125,[0. 0. 0. 0. 0. 0. 0. 0. 0.]
1742665595773222705,1742665595,766325279,imu_link,-0.019287109375,0.1026611328125,0.00299072265625,0.9945068359375,[0. 0. 0. 0. 0. 0. 0. 0. 0.],0.005859375,-0.005859375,-0.00390625,[0. 0. 0. 0. 0. 0. 0. 0. 0.],-1.9140625,-0.3828125,9.5390625,[0. 0. 0. 0. 0. 0. 0. 0. 0.]
1742665595793360538,1742665595,786433094,imu_link,-0.019287109375,0.1026611328125,0.00299072265625,0.9945068359375,[0. 0. 0. 0. 0. 0. 0. 0. 0.],0.0078125,0.0,0.00390625,[0. 0. 0. 0. 0. 0. 0. 0. 0.],-1.9140625,-0.3828125,9.5390625,[0. 0. 0. 0. 0. 0. 0. 0. 0.]
1742665595819406427,1742665595,806434872,imu_link,-0.01922607421875,0.10272216796875,0.00299072265625,0.9945068359375,[0. 0. 0. 0. 0. 0. 0. 0. 0.],0.0078125,0.0,0.00390625,[0. 0. 0. 0. 0. 0. 0. 0. 0.],-1.953125,-0.34375,9.65234375,[0. 0. 0. 0. 0. 0. 0. 0. 0.]
1742665595828488242,1742665595,826333094,imu_link,-0.01922607421875,0.10272216796875,0.00299072265625,0.9945068359375,[0. 0. 0. 0. 0. 0. 0. 0. 0.],0.0078125,0.0,0.00390625,[0. 0. 0. 0. 0. 0. 0. 0. 0.],-1.953125,-0.34375,9.65234375,[0. 0. 0. 0. 0. 0. 0. 0. 0.]
1742665595867616798,1742665595,846567668,imu_link,-0.01922607421875,0.102783203125,0.0030517578125,0.9945068359375,[0. 0. 0. 0. 0. 0. 0. 0. 0.],0.0078125,0.001953125,0.0,[0. 0. 0. 0. 0. 0. 0. 0. 0.],-1.9140625,-0.34375,9.5,[0. 0. 0. 0. 0. 0. 0. 0. 0.]
1742665595871763427,1742665595,869400353,imu_link,-0.01922607421875,0.102783203125,0.0030517578125,0.9945068359375,[0. 0. 0. 0. 0. 0. 0. 0. 0.],0.0078125,0.001953125,0.0,[0. 0. 0. 0. 0. 0. 0. 0. 0.],-1.9140625,-0.34375,9.578125,[0. 0. 0. 0. 0. 0. 0. 0. 0.]
1742665595897665631,1742665595,886380575,imu_link,-0.01922607421875,0.102783203125,0.0030517578125,0.9945068359375,[0. 0. 0. 0. 0. 0. 0. 0. 0.],0.001953125,-0.001953125,-0.001953125,[0. 0. 0. 0. 0. 0. 0. 0. 0.],-1.9140625,-0.34375,9.578125,[0. 0. 0. 0. 0. 0. 0. 0. 0.]
1742665595918415483,1742665595,906364242,imu_link,-0.0191650390625,0.102783203125,0.0030517578125,0.9945068359375,[0. 0. 0. 0. 0. 0. 0. 0. 0.],0.001953125,-0.001953125,-0.001953125,[0. 0. 0. 0. 0. 0. 0. 0. 0.],-1.9921875,-0.34375,9.578125,[0. 0. 0. 0. 0. 0. 0. 0. 0.]
1742665595937342149,1742665595,926387816,imu_link,-0.0191650390625,0.102783203125,0.0030517578125,0.9945068359375,[0. 0. 0. 0. 0. 0. 0. 0. 0.],-0.005859375,0.0,-0.0078125,[0. 0. 0. 0. 0. 0. 0. 0. 0.],-2.0703125,-0.3046875,9.578125,[0. 0. 0. 0. 0. 0. 0. 0. 0.]
1742665595948316501,1742665595,946431983,imu_link,-0.0191650390625,0.102783203125,0.0030517578125,0.9945068359375,[0. 0. 0. 0. 0. 0. 0. 0. 0.],-0.005859375,0.0,-0.0078125,[0. 0. 0. 0. 0. 0. 0. 0. 0.],-2.0703125,-0.3046875,9.578125,[0. 0. 0. 0. 0. 0. 0. 0. 0.]
1742665595979333223,1742665595,966409872,imu_link,-0.019287109375,0.10272216796875,0.00286865234375,0.9945068359375,[0. 0. 0. 0. 0. 0. 0. 0. 0.],-0.005859375,0.0,-0.0078125,[0. 0. 0. 0. 0. 0. 0. 0. 0.],-2.0703125,-0.421875,9.578125,[0. 0. 0. 0. 0. 0. 0. 0. 0.]
1742665595993090797,1742665595,986602149,imu_link,-0.019287109375,0.10272216796875,0.00286865234375,0.9945068359375,[0. 0. 0. 0. 0. 0. 0. 0. 0.],-0.00390625,0.001953125,0.00390625,[0. 0. 0. 0. 0. 0. 0. 0. 0.],-2.10546875,-0.3828125,9.54296875,[0. 0. 0. 0. 0. 0. 0. 0. 0.]
1742665596018622260,1742665596,6410520,imu_link,-0.019287109375,0.1026611328125,0.00286865234375,0.9945068359375,[0. 0. 0. 0. 0. 0. 0. 0. 0.],-0.00390625,0.001953125,0.00390625,[0. 0. 0. 0. 0. 0. 0. 0. 0.],-2.10546875,-0.3828125,9.54296875,[0. 0. 0. 0. 0. 0. 0. 0. 0.]
1742665596037240001,1742665596,26368520,imu_link,-0.019287109375,0.1026611328125,0.00286865234375,0.9945068359375,[0. 0. 0. 0. 0. 0. 0. 0. 0.],-0.0078125,0.0,-0.001953125,[0. 0. 0. 0. 0. 0. 0. 0. 0.],-2.10546875,-0.34375,9.58203125,[0. 0. 0. 0. 0. 0. 0. 0. 0.]
1742665596048292871,1742665596,46445723,imu_link,-0.019287109375,0.1026611328125,0.00286865234375,0.9945068359375,[0. 0. 0. 0. 0. 0. 0. 0. 0.],-0.0078125,0.0,-0.001953125,[0. 0. 0. 0. 0. 0. 0. 0. 0.],-2.10546875,-0.34375,9.58203125,[0. 0. 0. 0. 0. 0. 0. 0. 0.]
1742665596088616760,1742665596,66561409,imu_link,-0.019287109375,0.1026611328125,0.00286865234375,0.9945068359375,[0. 0. 0. 0. 0. 0. 0. 0. 0.],-0.00390625,-0.00390625,0.00390625,[0. 0. 0. 0. 0. 0. 0. 0. 0.],-1.9921875,-0.421875,9.58203125,[0. 0. 0. 0. 0. 0. 0. 0. 0.]
1742665596095411742,1742665596,91711242,imu_link,-0.019287109375,0.1026611328125,0.00286865234375,0.9945068359375,[0. 0. 0. 0. 0. 0. 0. 0. 0.],-0.00390625,-0.00390625,0.00390625,[0. 0. 0. 0. 0. 0. 0. 0. 0.],-1.9921875,-0.34375,9.578125,[0. 0. 0. 0. 0. 0. 0. 0. 0.]
1742665596122784723,1742665596,106417260,imu_link,-0.019287109375,0.1026611328125,0.0029296875,0.9945068359375,[0. 0. 0. 0. 0. 0. 0. 0. 0.],-0.00390625,-0.00390625,0.00390625,[0. 0. 0. 0. 0. 0. 0. 0. 0.],-1.953125,-0.3046875,9.58203125,[0. 0. 0. 0. 0. 0. 0. 0. 0.]
1742665596128123001,1742665596,126354149,imu_link,-0.019287109375,0.1026611328125,0.0029296875,0.9945068359375,[0. 0. 0. 0. 0. 0. 0. 0. 0.],-0.00390625,-0.00390625,0.00390625,[0. 0. 0. 0. 0. 0. 0. 0. 0.],-1.953125,-0.3046875,9.58203125,[0. 0. 0. 0. 0. 0. 0. 0. 0.]
1742665596162729871,1742665596,146442464,imu_link,-0.019287109375,0.10272216796875,0.00286865234375,0.9945068359375,[0. 0. 0. 0. 0. 0. 0. 0. 0.],-0.005859375,0.001953125,-0.00390625,[0. 0. 0. 0. 0. 0. 0. 0. 0.],-1.9921875,-0.3828125,9.5,[0. 0. 0. 0. 0. 0. 0. 0. 0.]
1742665596168045520,1742665596,166317483,imu_link,-0.019287109375,0.10272216796875,0.00286865234375,0.9945068359375,[0. 0. 0. 0. 0. 0. 0. 0. 0.],-0.005859375,0.001953125,-0.00390625,[0. 0. 0. 0. 0. 0. 0. 0. 0.],-1.9921875,-0.3828125,9.5,[0. 0. 0. 0. 0. 0. 0. 0. 0.]
1742665596197559371,1742665596,186388279,imu_link,-0.019287109375,0.10272216796875,0.00286865234375,0.9945068359375,[0. 0. 0. 0. 0. 0. 0. 0. 0.],-0.001953125,-0.001953125,0.00390625,[0. 0. 0. 0. 0. 0. 0. 0. 0.],-1.9140625,-0.421875,9.609375,[0. 0. 0. 0. 0. 0. 0. 0. 0.]
1742665596219407168,1742665596,206350871,imu_link,-0.01922607421875,0.10272216796875,0.0029296875,0.9945068359375,[0. 0. 0. 0. 0. 0. 0. 0. 0.],-0.001953125,-0.001953125,0.00390625,[0. 0. 0. 0. 0. 0. 0. 0. 0.],-1.953125,-0.34375,9.5390625,[0. 0. 0. 0. 0. 0. 0. 0. 0.]
1742665596228129020,1742665596,226363186,imu_link,-0.01922607421875,0.10272216796875,0.0029296875,0.9945068359375,[0. 0. 0. 0. 0. 0. 0. 0. 0.],-0.001953125,-0.001953125,0.00390625,[0. 0. 0. 0. 0. 0. 0. 0. 0.],-1.953125,-0.34375,9.5390625,[0. 0. 0. 0. 0. 0. 0. 0. 0.]
1742665596263021668,1742665596,247164816,imu_link,-0.01910400390625,0.1026611328125,0.00299072265625,0.9945068359375,[0. 0. 0. 0. 0. 0. 0. 0. 0.],0.0,-0.00390625,0.0,[0. 0. 0. 0. 0. 0. 0. 0. 0.],-1.9921875,-0.3828125,9.5390625,[0. 0. 0. 0. 0. 0. 0. 0. 0.]
1742665596268158094,1742665596,266431038,imu_link,-0.01910400390625,0.1026611328125,0.00299072265625,0.9945068359375,[0. 0. 0. 0. 0. 0. 0. 0. 0.],0.0,-0.00390625,0.0,[0. 0. 0. 0. 0. 0. 0. 0. 0.],-1.9921875,-0.3828125,9.5390625,[0. 0. 0. 0. 0. 0. 0. 0. 0.]
1742665596297345631,1742665596,286435427,imu_link,-0.01910400390625,0.1026611328125,0.00299072265625,0.9945068359375,[0. 0. 0. 0. 0. 0. 0. 0. 0.],0.0,0.0,0.001953125,[0. 0. 0. 0. 0. 0. 0. 0. 0.],-2.03125,-0.3828125,9.6875,[0. 0. 0. 0. 0. 0. 0. 0. 0.]
1742665596319140038,1742665596,306366353,imu_link,-0.01898193359375,0.10260009765625,0.0030517578125,0.9945068359375,[0. 0. 0. 0. 0. 0. 0. 0. 0.],0.0,0.0,0.001953125,[0. 0. 0. 0. 0. 0. 0. 0. 0.],-2.10546875,-0.34375,9.54296875,[0. 0. 0. 0. 0. 0. 0. 0. 0.]
1742665596328172834,1742665596,326379853,imu_link,-0.01898193359375,0.10260009765625,0.0030517578125,0.9945068359375,[0. 0. 0. 0. 0. 0. 0. 0. 0.],0.0,0.0,0.001953125,[0. 0. 0. 0. 0. 0. 0. 0. 0.],-2.10546875,-0.34375,9.54296875,[0. 0. 0. 0. 0. 0. 0. 0. 0.]
1742665596361670927,1742665596,346428649,imu_link,-0.01885986328125,0.10260009765625,0.0029296875,0.99456787109375,[0. 0. 0. 0. 0. 0. 0. 0. 0.],0.001953125,0.00390625,-0.00390625,[0. 0. 0. 0. 0. 0. 0. 0. 0.],-2.10546875,-0.3828125,9.54296875,[0. 0. 0. 0. 0. 0. 0. 0. 0.]
1742665596373386668,1742665596,366323075,imu_link,-0.01885986328125,0.10260009765625,0.0029296875,0.99456787109375,[0. 0. 0. 0. 0. 0. 0. 0. 0.],0.001953125,0.00390625,-0.00390625,[0. 0. 0. 0. 0. 0. 0. 0. 0.],-2.0703125,-0.34375,9.609375,[0. 0. 0. 0. 0. 0. 0. 0. 0.]
1742665596393385593,1742665596,386362390,imu_link,-0.01885986328125,0.10260009765625,0.0029296875,0.99456787109375,[0. 0. 0. 0. 0. 0. 0. 0. 0.],0.00390625,0.001953125,0.0,[0. 0. 0. 0. 0. 0. 0. 0. 0.],-2.0703125,-0.34375,9.609375,[0. 0. 0. 0. 0. 0. 0. 0. 0.]
1742665596418872334,1742665596,406390964,imu_link,-0.018798828125,0.10260009765625,0.00286865234375,0.99456787109375,[0. 0. 0. 0. 0. 0. 0. 0. 0.],0.00390625,0.001953125,0.0,[0. 0. 0. 0. 0. 0. 0. 0. 0.],-2.03125,-0.3828125,9.5,[0. 0. 0. 0. 0. 0. 0. 0. 0.]
1742665596428250556,1742665596,426434890,imu_link,-0.018798828125,0.10260009765625,0.00286865234375,0.99456787109375,[0. 0. 0. 0. 0. 0. 0. 0. 0.],0.00390625,0.001953125,0.0,[0. 0. 0. 0. 0. 0. 0. 0. 0.],-2.03125,-0.3828125,9.5,[0. 0. 0. 0. 0. 0. 0. 0. 0.]
1742665596448339631,1742665596,446455723,imu_link,-0.018798828125,0.10260009765625,0.00286865234375,0.99456787109375,[0. 0. 0. 0. 0. 0. 0. 0. 0.],0.005859375,-0.00390625,0.0,[0. 0. 0. 0. 0. 0. 0. 0. 0.],-1.953125,-0.3828125,9.578125,[0. 0. 0. 0. 0. 0. 0. 0. 0.]
1742665596473095279,1742665596,466363816,imu_link,-0.0186767578125,0.10260009765625,0.0028076171875,0.99456787109375,[0. 0. 0. 0. 0. 0. 0. 0. 0.],0.005859375,-0.00390625,0.0,[0. 0. 0. 0. 0. 0. 0. 0. 0.],-1.9921875,-0.3046875,9.73046875,[0. 0. 0. 0. 0. 0. 0. 0. 0.]
1742665596497476464,1742665596,486380723,imu_link,-0.0186767578125,0.10260009765625,0.0028076171875,0.99456787109375,[0. 0. 0. 0. 0. 0. 0. 0. 0.],0.0,-0.001953125,-0.00390625,[0. 0. 0. 0. 0. 0. 0. 0. 0.],-1.9921875,-0.3046875,9.73046875,[0. 0. 0. 0. 0. 0. 0. 0. 0.]
1742665596512549223,1742665596,509152334,imu_link,-0.0186767578125,0.10260009765625,0.00274658203125,0.99456787109375,[0. 0. 0. 0. 0. 0. 0. 0. 0.],0.0,-0.001953125,-0.00390625,[0. 0. 0. 0. 0. 0. 0. 0. 0.],-1.953125,-0.34375,9.5,[0. 0. 0. 0. 0. 0. 0. 0. 0.]
1742665596537214982,1742665596,526379908,imu_link,-0.0186767578125,0.10260009765625,0.00274658203125,0.99456787109375,[0. 0. 0. 0. 0. 0. 0. 0. 0.],0.001953125,0.0,0.0,[0. 0. 0. 0. 0. 0. 0. 0. 0.],-1.87890625,-0.3828125,9.58203125,[0. 0. 0. 0. 0. 0. 0. 0. 0.]
1742665596548625205,1742665596,546433408,imu_link,-0.0186767578125,0.10260009765625,0.00274658203125,0.99456787109375,[0. 0. 0. 0. 0. 0. 0. 0. 0.],0.001953125,0.0,0.0,[0. 0. 0. 0. 0. 0. 0. 0. 0.],-1.87890625,-0.3828125,9.58203125,[0. 0. 0. 0. 0. 0. 0. 0. 0.]
1742665596568257038,1742665596,566409871,imu_link,-0.0186767578125,0.1026611328125,0.00274658203125,0.99456787109375,[0. 0. 0. 0. 0. 0. 0. 0. 0.],0.001953125,0.0,0.0,[0. 0. 0. 0. 0. 0. 0. 0. 0.],-1.9140625,-0.3046875,9.609375,[0. 0. 0. 0. 0. 0. 0. 0. 0.]
1742665596596267649,1742665596,586354482,imu_link,-0.0186767578125,0.1026611328125,0.00274658203125,0.99456787109375,[0. 0. 0. 0. 0. 0. 0. 0. 0.],-0.00390625,0.001953125,-0.01171875,[0. 0. 0. 0. 0. 0. 0. 0. 0.],-2.03125,-0.34375,9.5390625,[0. 0. 0. 0. 0. 0. 0. 0. 0.]
1742665596618155001,1742665596,606433482,imu_link,-0.01873779296875,0.10260009765625,0.0025634765625,0.99456787109375,[0. 0. 0. 0. 0. 0. 0. 0. 0.],-0.00390625,0.001953125,-0.01171875,[0. 0. 0. 0. 0. 0. 0. 0. 0.],-2.03125,-0.34375,9.5390625,[0. 0. 0. 0. 0. 0. 0. 0. 0.]
1742665596637087779,1742665596,626377964,imu_link,-0.01873779296875,0.10260009765625,0.0025634765625,0.99456787109375,[0. 0. 0. 0. 0. 0. 0. 0. 0.],-0.001953125,0.001953125,-0.00390625,[0. 0. 0. 0. 0. 0. 0. 0. 0.],-1.9921875,-0.3828125,9.578125,[0. 0. 0. 0. 0. 0. 0. 0. 0.]
1742665596659947167,1742665596,646446186,imu_link,-0.01885986328125,0.10260009765625,0.00244140625,0.99456787109375,[0. 0. 0. 0. 0. 0. 0. 0. 0.],-0.001953125,0.001953125,-0.00390625,[0. 0. 0. 0. 0. 0. 0. 0. 0.],-1.9921875,-0.3828125,9.578125,[0. 0. 0. 0. 0. 0. 0. 0. 0.]
1742665596668162501,1742665596,666350630,imu_link,-0.01885986328125,0.10260009765625,0.00244140625,0.99456787109375,[0. 0. 0. 0. 0. 0. 0. 0. 0.],-0.001953125,0.001953125,-0.00390625,[0. 0. 0. 0. 0. 0. 0. 0. 0.],-2.03125,-0.34375,9.578125,[0. 0. 0. 0. 0. 0. 0. 0. 0.]
1742665596697077853,1742665596,686414501,imu_link,-0.01885986328125,0.10260009765625,0.00244140625,0.99456787109375,[0. 0. 0. 0. 0. 0. 0. 0. 0.],0.00390625,0.00390625,-0.01171875,[0. 0. 0. 0. 0. 0. 0. 0. 0.],-2.0703125,-0.34375,9.50390625,[0. 0. 0. 0. 0. 0. 0. 0. 0.]
1742665596722227186,1742665596,706736075,imu_link,-0.01885986328125,0.10260009765625,0.00213623046875,0.99456787109375,[0. 0. 0. 0. 0. 0. 0. 0. 0.],0.00390625,0.00390625,-0.01171875,[0. 0. 0. 0. 0. 0. 0. 0. 0.],-2.03125,-0.3828125,9.578125,[0. 0. 0. 0. 0. 0. 0. 0. 0.]
1742665596731832741,1742665596,726376723,imu_link,-0.01885986328125,0.10260009765625,0.00213623046875,0.99456787109375,[0. 0. 0. 0. 0. 0. 0. 0. 0.],0.00390625,0.00390625,-0.01171875,[0. 0. 0. 0. 0. 0. 0. 0. 0.],-2.03125,-0.3828125,9.578125,[0. 0. 0. 0. 0. 0. 0. 0. 0.]
1742665596761670427,1742665596,747091927,imu_link,-0.01885986328125,0.10247802734375,0.00201416015625,0.99456787109375,[0. 0. 0. 0. 0. 0. 0. 0. 0.],0.0078125,-0.001953125,-0.005859375,[0. 0. 0. 0. 0. 0. 0. 0. 0.],-1.9921875,-0.4609375,9.578125,[0. 0. 0. 0. 0. 0. 0. 0. 0.]
1742665596768031667,1742665596,766315260,imu_link,-0.01885986328125,0.10247802734375,0.00201416015625,0.99456787109375,[0. 0. 0. 0. 0. 0. 0. 0. 0.],0.0078125,-0.001953125,-0.005859375,[0. 0. 0. 0. 0. 0. 0. 0. 0.],-1.9921875,-0.4609375,9.578125,[0. 0. 0. 0. 0. 0. 0. 0. 0.]
1742665596797170075,1742665596,786402408,imu_link,-0.01885986328125,0.10247802734375,0.00201416015625,0.99456787109375,[0. 0. 0. 0. 0. 0. 0. 0. 0.],0.01171875,0.0,-0.001953125,[0. 0. 0. 0. 0. 0. 0. 0. 0.],-2.10546875,-0.34375,9.58203125,[0. 0. 0. 0. 0. 0. 0. 0. 0.]
1742665596816152741,1742665596,808666001,imu_link,-0.01873779296875,0.10247802734375,0.00201416015625,0.99456787109375,[0. 0. 0. 0. 0. 0. 0. 0. 0.],0.01171875,0.0,-0.001953125,[0. 0. 0. 0. 0. 0. 0. 0. 0.],-2.03125,-0.34375,9.5390625,[0. 0. 0. 0. 0. 0. 0. 0. 0.]
1742665596832603538,1742665596,826433149,imu_link,-0.01873779296875,0.10247802734375,0.00201416015625,0.99456787109375,[0. 0. 0. 0. 0. 0. 0. 0. 0.],0.01171875,0.0,-0.001953125,[0. 0. 0. 0. 0. 0. 0. 0. 0.],-2.03125,-0.34375,9.5390625,[0. 0. 0. 0. 0. 0. 0. 0. 0.]
1742665596862792427,1742665596,846401445,imu_link,-0.01861572265625,0.10247802734375,0.001953125,0.99456787109375,[0. 0. 0. 0. 0. 0. 0. 0. 0.],0.01171875,-0.00390625,0.0,[0. 0. 0. 0. 0. 0. 0. 0. 0.],-1.953125,-0.3828125,9.578125,[0. 0. 0. 0. 0. 0. 0. 0. 0.]
1742665596868100056,1742665596,866315871,imu_link,-0.01861572265625,0.10247802734375,0.001953125,0.99456787109375,[0. 0. 0. 0. 0. 0. 0. 0. 0.],0.01171875,-0.00390625,0.0,[0. 0. 0. 0. 0. 0. 0. 0. 0.],-1.953125,-0.3828125,9.578125,[0. 0. 0. 0. 0. 0. 0. 0. 0.]
1742665596896385760,1742665596,886436241,imu_link,-0.01861572265625,0.10247802734375,0.001953125,0.99456787109375,[0. 0. 0. 0. 0. 0. 0. 0. 0.],0.015625,0.001953125,-0.00390625,[0. 0. 0. 0. 0. 0. 0. 0. 0.],-1.9921875,-0.26953125,9.5,[0. 0. 0. 0. 0. 0. 0. 0. 0.]
1742665596919429167,1742665596,906364575,imu_link,-0.0185546875,0.10247802734375,0.00189208984375,0.99456787109375,[0. 0. 0. 0. 0. 0. 0. 0. 0.],0.015625,0.001953125,-0.00390625,[0. 0. 0. 0. 0. 0. 0. 0. 0.],-1.953125,-0.34375,9.65234375,[0. 0. 0. 0. 0. 0. 0. 0. 0.]
1742665596932451945,1742665596,926398964,imu_link,-0.0185546875,0.10247802734375,0.00189208984375,0.99456787109375,[0. 0. 0. 0. 0. 0. 0. 0. 0.],0.015625,0.0,-0.00390625,[0. 0. 0. 0. 0. 0. 0. 0. 0.],-1.953125,-0.34375,9.65234375,[0. 0. 0. 0. 0. 0. 0. 0. 0.]
1742665596958030834,1742665596,946354667,imu_link,-0.01849365234375,0.1025390625,0.0018310546875,0.99456787109375,[0. 0. 0. 0. 0. 0. 0. 0. 0.],0.015625,0.0,-0.00390625,[0. 0. 0. 0. 0. 0. 0. 0. 0.],-1.953125,-0.3828125,9.5390625,[0. 0. 0. 0. 0. 0. 0. 0. 0.]
1742665596973059667,1742665596,966378908,imu_link,-0.01849365234375,0.1025390625,0.0018310546875,0.99456787109375,[0. 0. 0. 0. 0. 0. 0. 0. 0.],0.015625,0.0,-0.00390625,[0. 0. 0. 0. 0. 0. 0. 0. 0.],-1.953125,-0.3046875,9.58203125,[0. 0. 0. 0. 0. 0. 0. 0. 0.]
1742665596993122815,1742665596,986427019,imu_link,-0.01849365234375,0.1025390625,0.0018310546875,0.99456787109375,[0. 0. 0. 0. 0. 0. 0. 0. 0.],0.009765625,-0.001953125,-0.00390625,[0. 0. 0. 0. 0. 0. 0. 0. 0.],-1.953125,-0.3046875,9.58203125,[0. 0. 0. 0. 0. 0. 0. 0. 0.]
1742665597020031667,1742665597,6418075,imu_link,-0.01849365234375,0.10247802734375,0.001708984375,0.99456787109375,[0. 0. 0. 0. 0. 0. 0. 0. 0.],0.009765625,-0.001953125,-0.00390625,[0. 0. 0. 0. 0. 0. 0. 0. 0.],-2.03125,-0.3046875,9.6484375,[0. 0. 0. 0. 0. 0. 0. 0. 0.]
1742665597036699538,1742665597,26342649,imu_link,-0.01849365234375,0.10247802734375,0.001708984375,0.99456787109375,[0. 0. 0. 0. 0. 0. 0. 0. 0.],0.005859375,0.0,-0.005859375,[0. 0. 0. 0. 0. 0. 0. 0. 0.],-2.03125,-0.3046875,9.6484375,[0. 0. 0. 0. 0. 0. 0. 0. 0.]
1742665597057841686,1742665597,46345871,imu_link,-0.01849365234375,0.1024169921875,0.0015869140625,0.99456787109375,[0. 0. 0. 0. 0. 0. 0. 0. 0.],0.005859375,0.0,-0.005859375,[0. 0. 0. 0. 0. 0. 0. 0. 0.],-2.03125,-0.421875,9.54296875,[0. 0. 0. 0. 0. 0. 0. 0. 0.]
1742665597074066445,1742665597,66441723,imu_link,-0.01849365234375,0.1024169921875,0.0015869140625,0.99456787109375,[0. 0. 0. 0. 0. 0. 0. 0. 0.],0.005859375,0.0,-0.005859375,[0. 0. 0. 0. 0. 0. 0. 0. 0.],-2.03125,-0.34375,9.578125,[0. 0. 0. 0. 0. 0. 0. 0. 0.]
1742665597096980019,1742665597,86431797,imu_link,-0.01849365234375,0.1024169921875,0.0015869140625,0.99456787109375,[0. 0. 0. 0. 0. 0. 0. 0. 0.],0.005859375,-0.001953125,0.001953125,[0. 0. 0. 0. 0. 0. 0. 0. 0.],-2.03125,-0.34375,9.578125,[0. 0. 0. 0. 0. 0. 0. 0. 0.]
1742665597112957686,1742665597,109485871,imu_link,-0.0184326171875,0.1024169921875,0.00164794921875,0.99456787109375,[0. 0. 0. 0. 0. 0. 0. 0. 0.],0.005859375,-0.001953125,0.001953125,[0. 0. 0. 0. 0. 0. 0. 0. 0.],-2.0703125,-0.26953125,9.609375,[0. 0. 0. 0. 0. 0. 0. 0. 0.]
1742665597136626167,1742665597,126383593,imu_link,-0.0184326171875,0.1024169921875,0.00164794921875,0.99456787109375,[0. 0. 0. 0. 0. 0. 0. 0. 0.],0.013671875,0.0,-0.00390625,[0. 0. 0. 0. 0. 0. 0. 0. 0.],-1.953125,-0.3828125,9.4609375,[0. 0. 0. 0. 0. 0. 0. 0. 0.]
1742665597162810167,1742665597,146387612,imu_link,-0.01837158203125,0.1024169921875,0.00146484375,0.99456787109375,[0. 0. 0. 0. 0. 0. 0. 0. 0.],0.013671875,0.0,-0.00390625,[0. 0. 0. 0. 0. 0. 0. 0. 0.],-1.953125,-0.3828125,9.4609375,[0. 0. 0. 0. 0. 0. 0. 0. 0.]
1742665597168086334,1742665597,166315926,imu_link,-0.01837158203125,0.1024169921875,0.00146484375,0.99456787109375,[0. 0. 0. 0. 0. 0. 0. 0. 0.],0.013671875,0.0,-0.00390625,[0. 0. 0. 0. 0. 0. 0. 0. 0.],-1.87890625,-0.34375,9.609375,[0. 0. 0. 0. 0. 0. 0. 0. 0.]
1742665597196898667,1742665597,186429778,imu_link,-0.01837158203125,0.1024169921875,0.00146484375,0.99456787109375,[0. 0. 0. 0. 0. 0. 0. 0. 0.],0.017578125,-0.00390625,0.0,[0. 0. 0. 0. 0. 0. 0. 0. 0.],-1.83984375,-0.34375,9.609375,[0. 0. 0. 0. 0. 0. 0. 0. 0.]
1742665597212695000,1742665597,209177982,imu_link,-0.01824951171875,0.1024169921875,0.00146484375,0.99456787109375,[0. 0. 0. 0. 0. 0. 0. 0. 0.],0.017578125,-0.00390625,0.0,[0. 0. 0. 0. 0. 0. 0. 0. 0.],-1.83984375,-0.34375,9.609375,[0. 0. 0. 0. 0. 0. 0. 0. 0.]
1742665597237592445,1742665597,226335723,imu_link,-0.01824951171875,0.1024169921875,0.00146484375,0.99456787109375,[0. 0. 0. 0. 0. 0. 0. 0. 0.],0.009765625,0.001953125,-0.005859375,[0. 0. 0. 0. 0. 0. 0. 0. 0.],-1.953125,-0.3046875,9.54296875,[0. 0. 0. 0. 0. 0. 0. 0. 0.]
1742665597260798445,1742665597,246361704,imu_link,-0.018310546875,0.10235595703125,0.0013427734375,0.99456787109375,[0. 0. 0. 0. 0. 0. 0. 0. 0.],0.009765625,0.001953125,-0.005859375,[0. 0. 0. 0. 0. 0. 0. 0. 0.],-2.0703125,-0.34375,9.609375,[0. 0. 0. 0. 0. 0. 0. 0. 0.]
1742665597268798130,1742665597,266316445,imu_link,-0.018310546875,0.10235595703125,0.0013427734375,0.99456787109375,[0. 0. 0. 0. 0. 0. 0. 0. 0.],0.009765625,0.001953125,-0.005859375,[0. 0. 0. 0. 0. 0. 0. 0. 0.],-2.0703125,-0.34375,9.609375,[0. 0. 0. 0. 0. 0. 0. 0. 0.]
1742665597305943556,1742665597,286443611,imu_link,-0.018310546875,0.102294921875,0.00128173828125,0.99456787109375,[0. 0. 0. 0. 0. 0. 0. 0. 0.],0.005859375,-0.001953125,-0.005859375,[0. 0. 0. 0. 0. 0. 0. 0. 0.],-2.14453125,-0.3828125,9.5390625,[0. 0. 0. 0. 0. 0. 0. 0. 0.]
1742665597311080093,1742665597,307643723,imu_link,-0.018310546875,0.102294921875,0.00128173828125,0.99456787109375,[0. 0. 0. 0. 0. 0. 0. 0. 0.],0.005859375,-0.001953125,-0.005859375,[0. 0. 0. 0. 0. 0. 0. 0. 0.],-2.14453125,-0.3828125,9.5390625,[0. 0. 0. 0. 0. 0. 0. 0. 0.]
1742665597333827019,1742665597,326399074,imu_link,-0.018310546875,0.102294921875,0.00128173828125,0.99456787109375,[0. 0. 0. 0. 0. 0. 0. 0. 0.],0.00390625,-0.001953125,-0.001953125,[0. 0. 0. 0. 0. 0. 0. 0. 0.],-2.10546875,-0.34375,9.54296875,[0. 0. 0. 0. 0. 0. 0. 0. 0.]
1742665597361241223,1742665597,346388945,imu_link,-0.018310546875,0.102294921875,0.00115966796875,0.99456787109375,[0. 0. 0. 0. 0. 0. 0. 0. 0.],0.00390625,-0.001953125,-0.001953125,[0. 0. 0. 0. 0. 0. 0. 0. 0.],-2.10546875,-0.3046875,9.578125,[0. 0. 0. 0. 0. 0. 0. 0. 0.]
1742665597368698760,1742665597,366319371,imu_link,-0.018310546875,0.102294921875,0.00115966796875,0.99456787109375,[0. 0. 0. 0. 0. 0. 0. 0. 0.],0.00390625,-0.001953125,-0.001953125,[0. 0. 0. 0. 0. 0. 0. 0. 0.],-2.10546875,-0.3046875,9.578125,[0. 0. 0. 0. 0. 0. 0. 0. 0.]
1742665597406779926,1742665597,386541982,imu_link,-0.0181884765625,0.10223388671875,0.0010986328125,0.99456787109375,[0. 0. 0. 0. 0. 0. 0. 0. 0.],0.001953125,-0.00390625,0.001953125,[0. 0. 0. 0. 0. 0. 0. 0. 0.],-1.953125,-0.3828125,9.578125,[0. 0. 0. 0. 0. 0. 0. 0. 0.]
1742665597416002093,1742665597,414270889,imu_link,-0.0181884765625,0.10223388671875,0.0010986328125,0.99456787109375,[0. 0. 0. 0. 0. 0. 0. 0. 0.],0.001953125,-0.00390625,0.001953125,[0. 0. 0. 0. 0. 0. 0. 0. 0.],-1.9140625,-0.3828125,9.5390625,[0. 0. 0. 0. 0. 0. 0. 0. 0.]
1742665597434996815,1742665597,426420074,imu_link,-0.0181884765625,0.10223388671875,0.0010986328125,0.99456787109375,[0. 0. 0. 0. 0. 0. 0. 0. 0.],0.0,0.0,-0.00390625,[0. 0. 0. 0. 0. 0. 0. 0. 0.],-1.9140625,-0.3828125,9.5390625,[0. 0. 0. 0. 0. 0. 0. 0. 0.]
1742665597461614648,1742665597,446391630,imu_link,-0.01806640625,0.10223388671875,0.00103759765625,0.99456787109375,[0. 0. 0. 0. 0. 0. 0. 0. 0.],0.0,0.0,-0.00390625,[0. 0. 0. 0. 0. 0. 0. 0. 0.],-1.87890625,-0.34375,9.6484375,[0. 0. 0. 0. 0. 0. 0. 0. 0.]
1742665597470095556,1742665597,466319722,imu_link,-0.01806640625,0.10223388671875,0.00103759765625,0.99456787109375,[0. 0. 0. 0. 0. 0. 0. 0. 0.],0.0,0.0,-0.00390625,[0. 0. 0. 0. 0. 0. 0. 0. 0.],-1.87890625,-0.34375,9.6484375,[0. 0. 0. 0. 0. 0. 0. 0. 0.]
1742665597494113019,1742665597,486428926,imu_link,-0.01806640625,0.10223388671875,0.00103759765625,0.99456787109375,[0. 0. 0. 0. 0. 0. 0. 0. 0.],0.0,-0.00390625,-0.00390625,[0. 0. 0. 0. 0. 0. 0. 0. 0.],-1.83984375,-0.34375,9.54296875,[0. 0. 0. 0. 0. 0. 0. 0. 0.]
1742665597521371834,1742665597,506421556,imu_link,-0.01800537109375,0.1021728515625,0.00091552734375,0.99462890625,[0. 0. 0. 0. 0. 0. 0. 0. 0.],0.0,-0.00390625,-0.00390625,[0. 0. 0. 0. 0. 0. 0. 0. 0.],-1.9921875,-0.3046875,9.54296875,[0. 0. 0. 0. 0. 0. 0. 0. 0.]
1742665597537097871,1742665597,526325278,imu_link,-0.01800537109375,0.1021728515625,0.00091552734375,0.99462890625,[0. 0. 0. 0. 0. 0. 0. 0. 0.],-0.001953125,-0.00390625,-0.00390625,[0. 0. 0. 0. 0. 0. 0. 0. 0.],-1.9921875,-0.3046875,9.54296875,[0. 0. 0. 0. 0. 0. 0. 0. 0.]
1742665597559089241,1742665597,546348537,imu_link,-0.01800537109375,0.10211181640625,0.00079345703125,0.99462890625,[0. 0. 0. 0. 0. 0. 0. 0. 0.],-0.001953125,-0.00390625,-0.00390625,[0. 0. 0. 0. 0. 0. 0. 0. 0.],-2.10546875,-0.26953125,9.6484375,[0. 0. 0. 0. 0. 0. 0. 0. 0.]
1742665597574235037,1742665597,566494519,imu_link,-0.01800537109375,0.10211181640625,0.00079345703125,0.99462890625,[0. 0. 0. 0. 0. 0. 0. 0. 0.],-0.001953125,-0.00390625,-0.00390625,[0. 0. 0. 0. 0. 0. 0. 0. 0.],-2.10546875,-0.26953125,9.6484375,[0. 0. 0. 0. 0. 0. 0. 0. 0.]
1742665597594228056,1742665597,586434482,imu_link,-0.01800537109375,0.10211181640625,0.00079345703125,0.99462890625,[0. 0. 0. 0. 0. 0. 0. 0. 0.],-0.00390625,-0.001953125,-0.01171875,[0. 0. 0. 0. 0. 0. 0. 0. 0.],-2.14453125,-0.3828125,9.5390625,[0. 0. 0. 0. 0. 0. 0. 0. 0.]
1742665597621917352,1742665597,606383278,imu_link,-0.01800537109375,0.10205078125,0.00054931640625,0.99462890625,[0. 0. 0. 0. 0. 0. 0. 0. 0.],-0.00390625,-0.001953125,-0.01171875,[0. 0. 0. 0. 0. 0. 0. 0. 0.],-2.0703125,-0.3828125,9.54296875,[0. 0. 0. 0. 0. 0. 0. 0. 0.]
1742665597637201000,1742665597,626334204,imu_link,-0.01800537109375,0.10205078125,0.00054931640625,0.99462890625,[0. 0. 0. 0. 0. 0. 0. 0. 0.],-0.00390625,-0.00390625,-0.001953125,[0. 0. 0. 0. 0. 0. 0. 0. 0.],-1.953125,-0.34375,9.61328125,[0. 0. 0. 0. 0. 0. 0. 0. 0.]
1742665597659096833,1742665597,646353722,imu_link,-0.01800537109375,0.10205078125,0.00042724609375,0.99462890625,[0. 0. 0. 0. 0. 0. 0. 0. 0.],-0.00390625,-0.00390625,-0.001953125,[0. 0. 0. 0. 0. 0. 0. 0. 0.],-1.953125,-0.34375,9.61328125,[0. 0. 0. 0. 0. 0. 0. 0. 0.]
1742665597670140000,1742665597,666329241,imu_link,-0.01800537109375,0.10205078125,0.00042724609375,0.99462890625,[0. 0. 0. 0. 0. 0. 0. 0. 0.],-0.00390625,-0.00390625,-0.001953125,[0. 0. 0. 0. 0. 0. 0. 0. 0.],-1.87890625,-0.3828125,9.50390625,[0. 0. 0. 0. 0. 0. 0. 0. 0.]
1742665597708055945,1742665597,686435259,imu_link,-0.01800537109375,0.10205078125,0.0003662109375,0.99462890625,[0. 0. 0. 0. 0. 0. 0. 0. 0.],-0.0078125,-0.005859375,0.0,[0. 0. 0. 0. 0. 0. 0. 0. 0.],-1.83984375,-0.3828125,9.58203125,[0. 0. 0. 0. 0. 0. 0. 0. 0.]
1742665597714257167,1742665597,712049352,imu_link,-0.01800537109375,0.10205078125,0.0003662109375,0.99462890625,[0. 0. 0. 0. 0. 0. 0. 0. 0.],-0.0078125,-0.005859375,0.0,[0. 0. 0. 0. 0. 0. 0. 0. 0.],-1.83984375,-0.3828125,9.58203125,[0. 0. 0. 0. 0. 0. 0. 0. 0.]
1742665597736686685,1742665597,726457037,imu_link,-0.01800537109375,0.10205078125,0.0003662109375,0.99462890625,[0. 0. 0. 0. 0. 0. 0. 0. 0.],-0.0078125,0.0,-0.0078125,[0. 0. 0. 0. 0. 0. 0. 0. 0.],-1.9921875,-0.3046875,9.69140625,[0. 0. 0. 0. 0. 0. 0. 0. 0.]
1742665597763591778,1742665597,746371426,imu_link,-0.01800537109375,0.10205078125,0.000244140625,0.99462890625,[0. 0. 0. 0. 0. 0. 0. 0. 0.],-0.0078125,0.0,-0.0078125,[0. 0. 0. 0. 0. 0. 0. 0. 0.],-1.9921875,-0.3046875,9.69140625,[0. 0. 0. 0. 0. 0. 0. 0. 0.]
1742665597769882130,1742665597,766314667,imu_link,-0.01800537109375,0.10205078125,0.000244140625,0.99462890625,[0. 0. 0. 0. 0. 0. 0. 0. 0.],-0.0078125,0.0,-0.0078125,[0. 0. 0. 0. 0. 0. 0. 0. 0.],-2.03125,-0.3828125,9.4609375,[0. 0. 0. 0. 0. 0. 0. 0. 0.]
1742665597807871111,1742665597,786434241,imu_link,-0.01806640625,0.10205078125,0.0001220703125,0.99462890625,[0. 0. 0. 0. 0. 0. 0. 0. 0.],-0.0078125,-0.001953125,-0.005859375,[0. 0. 0. 0. 0. 0. 0. 0. 0.],-2.03125,-0.3046875,9.609375,[0. 0. 0. 0. 0. 0. 0. 0. 0.]
1742665597813356019,1742665597,810519667,imu_link,-0.01806640625,0.10205078125,0.0001220703125,0.99462890625,[0. 0. 0. 0. 0. 0. 0. 0. 0.],-0.0078125,-0.001953125,-0.005859375,[0. 0. 0. 0. 0. 0. 0. 0. 0.],-2.03125,-0.3046875,9.609375,[0. 0. 0. 0. 0. 0. 0. 0. 0.]
1742665597837344593,1742665597,826437352,imu_link,-0.01806640625,0.10205078125,0.0001220703125,0.99462890625,[0. 0. 0. 0. 0. 0. 0. 0. 0.],-0.005859375,-0.001953125,-0.0078125,[0. 0. 0. 0. 0. 0. 0. 0. 0.],-2.03125,-0.34375,9.578125,[0. 0. 0. 0. 0. 0. 0. 0. 0.]
1742665597860719185,1742665597,846373037,imu_link,-0.01800537109375,0.10198974609375,-6.103515625e-05,0.99462890625,[0. 0. 0. 0. 0. 0. 0. 0. 0.],-0.005859375,-0.001953125,-0.0078125,[0. 0. 0. 0. 0. 0. 0. 0. 0.],-1.9921875,-0.421875,9.54296875,[0. 0. 0. 0. 0. 0. 0. 0. 0.]
1742665597869832685,1742665597,866410611,imu_link,-0.01800537109375,0.10198974609375,-6.103515625e-05,0.99462890625,[0. 0. 0. 0. 0. 0. 0. 0. 0.],-0.005859375,-0.001953125,-0.0078125,[0. 0. 0. 0. 0. 0. 0. 0. 0.],-1.9921875,-0.421875,9.54296875,[0. 0. 0. 0. 0. 0. 0. 0. 0.]
1742665597907662241,1742665597,886584833,imu_link,-0.0179443359375,0.10205078125,-6.103515625e-05,0.99462890625,[0. 0. 0. 0. 0. 0. 0. 0. 0.],-0.005859375,0.00390625,0.00390625,[0. 0. 0. 0. 0. 0. 0. 0. 0.],-2.03125,-0.3828125,9.61328125,[0. 0. 0. 0. 0. 0. 0. 0. 0.]
1742665597915437111,1742665597,910364185,imu_link,-0.0179443359375,0.10205078125,-6.103515625e-05,0.99462890625,[0. 0. 0. 0. 0. 0. 0. 0. 0.],-0.005859375,0.00390625,0.00390625,[0. 0. 0. 0. 0. 0. 0. 0. 0.],-2.03125,-0.3828125,9.61328125,[0. 0. 0. 0. 0. 0. 0. 0. 0.]
1742665597934261537,1742665597,926634185,imu_link,-0.0179443359375,0.10205078125,-6.103515625e-05,0.99462890625,[0. 0. 0. 0. 0. 0. 0. 0. 0.],-0.00390625,-0.001953125,-0.001953125,[0. 0. 0. 0. 0. 0. 0. 0. 0.],-1.9921875,-0.34375,9.578125,[0. 0. 0. 0. 0. 0. 0. 0. 0.]
1742665597959962815,1742665597,946360889,imu_link,-0.0179443359375,0.10205078125,-0.0001220703125,0.99462890625,[0. 0. 0. 0. 0. 0. 0. 0. 0.],-0.00390625,-0.001953125,-0.001953125,[0. 0. 0. 0. 0. 0. 0. 0. 0.],-1.9921875,-0.3046875,9.50390625,[0. 0. 0. 0. 0. 0. 0. 0. 0.]
1742665597969845556,1742665597,966441333,imu_link,-0.0179443359375,0.10205078125,-0.0001220703125,0.99462890625,[0. 0. 0. 0. 0. 0. 0. 0. 0.],-0.00390625,-0.001953125,-0.001953125,[0. 0. 0. 0. 0. 0. 0. 0. 0.],-1.9921875,-0.3046875,9.50390625,[0. 0. 0. 0. 0. 0. 0. 0. 0.]
1742665598007557093,1742665597,986429518,imu_link,-0.0179443359375,0.10198974609375,-0.00018310546875,0.99462890625,[0. 0. 0. 0. 0. 0. 0. 0. 0.],-0.00390625,-0.001953125,-0.005859375,[0. 0. 0. 0. 0. 0. 0. 0. 0.],-1.9921875,-0.26953125,9.61328125,[0. 0. 0. 0. 0. 0. 0. 0. 0.]
1742665598015850555,1742665598,14091963,imu_link,-0.0179443359375,0.10198974609375,-0.00018310546875,0.99462890625,[0. 0. 0. 0. 0. 0. 0. 0. 0.],-0.00390625,-0.001953125,-0.005859375,[0. 0. 0. 0. 0. 0. 0. 0. 0.],-1.9140625,-0.3046875,9.58203125,[0. 0. 0. 0. 0. 0. 0. 0. 0.]
1742665598033846555,1742665598,26454778,imu_link,-0.0179443359375,0.10198974609375,-0.00018310546875,0.99462890625,[0. 0. 0. 0. 0. 0. 0. 0. 0.],-0.00390625,0.001953125,-0.005859375,[0. 0. 0. 0. 0. 0. 0. 0. 0.],-1.9140625,-0.3046875,9.58203125,[0. 0. 0. 0. 0. 0. 0. 0. 0.]
1742665598061492370,1742665598,46356074,imu_link,-0.0179443359375,0.10205078125,-0.00030517578125,0.99462890625,[0. 0. 0. 0. 0. 0. 0. 0. 0.],-0.00390625,0.001953125,-0.005859375,[0. 0. 0. 0. 0. 0. 0. 0. 0.],-2.03125,-0.3828125,9.61328125,[0. 0. 0. 0. 0. 0. 0. 0. 0.]
1742665598069898111,1742665598,66402278,imu_link,-0.0179443359375,0.10205078125,-0.00030517578125,0.99462890625,[0. 0. 0. 0. 0. 0. 0. 0. 0.],-0.00390625,0.001953125,-0.005859375,[0. 0. 0. 0. 0. 0. 0. 0. 0.],-2.03125,-0.3828125,9.61328125,[0. 0. 0. 0. 0. 0. 0. 0. 0.]
1742665598089766944,1742665598,86354426,imu_link,-0.0179443359375,0.10205078125,-0.00030517578125,0.99462890625,[0. 0. 0. 0. 0. 0. 0. 0. 0.],-0.00390625,0.00390625,-0.001953125,[0. 0. 0. 0. 0. 0. 0. 0. 0.],-1.953125,-0.3828125,9.5390625,[0. 0. 0. 0. 0. 0. 0. 0. 0.]
1742665598121576055,1742665598,106439944,imu_link,-0.01800537109375,0.10205078125,-0.00030517578125,0.99462890625,[0. 0. 0. 0. 0. 0. 0. 0. 0.],-0.00390625,0.00390625,-0.001953125,[0. 0. 0. 0. 0. 0. 0. 0. 0.],-1.9140625,-0.3828125,9.61328125,[0. 0. 0. 0. 0. 0. 0. 0. 0.]
1742665598133874481,1742665598,126612370,imu_link,-0.01800537109375,0.10205078125,-0.00030517578125,0.99462890625,[0. 0. 0. 0. 0. 0. 0. 0. 0.],-0.001953125,0.0,-0.001953125,[0. 0. 0. 0. 0. 0. 0. 0. 0.],-1.9140625,-0.3828125,9.61328125,[0. 0. 0. 0. 0. 0. 0. 0. 0.]
1742665598161239722,1742665598,146410148,imu_link,-0.01800537109375,0.10205078125,-0.0003662109375,0.99462890625,[0. 0. 0. 0. 0. 0. 0. 0. 0.],-0.001953125,0.0,-0.001953125,[0. 0. 0. 0. 0. 0. 0. 0. 0.],-1.9921875,-0.3046875,9.54296875,[0. 0. 0. 0. 0. 0. 0. 0. 0.]
1742665598174053000,1742665598,166318833,imu_link,-0.01800537109375,0.10205078125,-0.0003662109375,0.99462890625,[0. 0. 0. 0. 0. 0. 0. 0. 0.],-0.001953125,0.0,-0.001953125,[0. 0. 0. 0. 0. 0. 0. 0. 0.],-1.953125,-0.34375,9.61328125,[0. 0. 0. 0. 0. 0. 0. 0. 0.]
1742665598189773629,1742665598,186345444,imu_link,-0.01800537109375,0.10205078125,-0.0003662109375,0.99462890625,[0. 0. 0. 0. 0. 0. 0. 0. 0.],-0.001953125,0.00390625,-0.00390625,[0. 0. 0. 0. 0. 0. 0. 0. 0.],-1.953125,-0.34375,9.61328125,[0. 0. 0. 0. 0. 0. 0. 0. 0.]
1742665598220877852,1742665598,206399555,imu_link,-0.01806640625,0.10198974609375,-0.00042724609375,0.99462890625,[0. 0. 0. 0. 0. 0. 0. 0. 0.],-0.001953125,0.00390625,-0.00390625,[0. 0. 0. 0. 0. 0. 0. 0. 0.],-1.9921875,-0.34375,9.578125,[0. 0. 0. 0. 0. 0. 0. 0. 0.]
1742665598237830648,1742665598,226533704,imu_link,-0.01806640625,0.10198974609375,-0.00042724609375,0.99462890625,[0. 0. 0. 0. 0. 0. 0. 0. 0.],0.0078125,0.001953125,0.0,[0. 0. 0. 0. 0. 0. 0. 0. 0.],-1.9921875,-0.34375,9.5,[0. 0. 0. 0. 0. 0. 0. 0. 0.]
1742665598259731444,1742665598,246790796,imu_link,-0.0179443359375,0.10198974609375,-0.00048828125,0.99462890625,[0. 0. 0. 0. 0. 0. 0. 0. 0.],0.0078125,0.001953125,0.0,[0. 0. 0. 0. 0. 0. 0. 0. 0.],-1.9921875,-0.34375,9.5,[0. 0. 0. 0. 0. 0. 0. 0. 0.]
1742665598269674555,1742665598,266329926,imu_link,-0.0179443359375,0.10198974609375,-0.00048828125,0.99462890625,[0. 0. 0. 0. 0. 0. 0. 0. 0.],0.0078125,0.001953125,0.0,[0. 0. 0. 0. 0. 0. 0. 0. 0.],-1.9921875,-0.421875,9.609375,[0. 0. 0. 0. 0. 0. 0. 0. 0.]
1742665598307828148,1742665598,286439018,imu_link,-0.017822265625,0.1019287109375,-0.00048828125,0.99462890625,[0. 0. 0. 0. 0. 0. 0. 0. 0.],0.015625,0.001953125,0.0,[0. 0. 0. 0. 0. 0. 0. 0. 0.],-2.03125,-0.3828125,9.578125,[0. 0. 0. 0. 0. 0. 0. 0. 0.]
1742665598312757352,1742665598,310564592,imu_link,-0.017822265625,0.1019287109375,-0.00048828125,0.99462890625,[0. 0. 0. 0. 0. 0. 0. 0. 0.],0.015625,0.001953125,0.0,[0. 0. 0. 0. 0. 0. 0. 0. 0.],-2.03125,-0.3828125,9.578125,[0. 0. 0. 0. 0. 0. 0. 0. 0.]
1742665598338858740,1742665598,326439018,imu_link,-0.017822265625,0.1019287109375,-0.00048828125,0.99462890625,[0. 0. 0. 0. 0. 0. 0. 0. 0.],0.01171875,0.001953125,0.001953125,[0. 0. 0. 0. 0. 0. 0. 0. 0.],-2.03125,-0.34375,9.578125,[0. 0. 0. 0. 0. 0. 0. 0. 0.]
1742665598363364037,1742665598,346343833,imu_link,-0.0177001953125,0.1019287109375,-0.00048828125,0.99462890625,[0. 0. 0. 0. 0. 0. 0. 0. 0.],0.01171875,0.001953125,0.001953125,[0. 0. 0. 0. 0. 0. 0. 0. 0.],-1.9921875,-0.3046875,9.609375,[0. 0. 0. 0. 0. 0. 0. 0. 0.]
1742665598369757185,1742665598,366337444,imu_link,-0.0177001953125,0.1019287109375,-0.00048828125,0.99462890625,[0. 0. 0. 0. 0. 0. 0. 0. 0.],0.01171875,0.001953125,0.001953125,[0. 0. 0. 0. 0. 0. 0. 0. 0.],-1.9921875,-0.3046875,9.609375,[0. 0. 0. 0. 0. 0. 0. 0. 0.]
1742665598406094481,1742665598,386597352,imu_link,-0.01763916015625,0.1019287109375,-0.00048828125,0.99462890625,[0. 0. 0. 0. 0. 0. 0. 0. 0.],0.009765625,0.0,0.0,[0. 0. 0. 0. 0. 0. 0. 0. 0.],-1.953125,-0.34375,9.578125,[0. 0. 0. 0. 0. 0. 0. 0. 0.]
1742665598412183018,1742665598,408757796,imu_link,-0.01763916015625,0.1019287109375,-0.00048828125,0.99462890625,[0. 0. 0. 0. 0. 0. 0. 0. 0.],0.009765625,0.0,0.0,[0. 0. 0. 0. 0. 0. 0. 0. 0.],-1.953125,-0.34375,9.578125,[0. 0. 0. 0. 0. 0. 0. 0. 0.]
1742665598437488907,1742665598,426500037,imu_link,-0.01763916015625,0.1019287109375,-0.00048828125,0.99462890625,[0. 0. 0. 0. 0. 0. 0. 0. 0.],0.00390625,-0.001953125,-0.001953125,[0. 0. 0. 0. 0. 0. 0. 0. 0.],-1.953125,-0.3046875,9.46484375,[0. 0. 0. 0. 0. 0. 0. 0. 0.]
1742665598460279944,1742665598,446331777,imu_link,-0.01763916015625,0.1019287109375,-0.00054931640625,0.99462890625,[0. 0. 0. 0. 0. 0. 0. 0. 0.],0.00390625,-0.001953125,-0.001953125,[0. 0. 0. 0. 0. 0. 0. 0. 0.],-1.9921875,-0.3046875,9.6484375,[0. 0. 0. 0. 0. 0. 0. 0. 0.]
1742665598469798611,1742665598,466349074,imu_link,-0.01763916015625,0.1019287109375,-0.00054931640625,0.99462890625,[0. 0. 0. 0. 0. 0. 0. 0. 0.],0.00390625,-0.001953125,-0.001953125,[0. 0. 0. 0. 0. 0. 0. 0. 0.],-1.9921875,-0.3046875,9.6484375,[0. 0. 0. 0. 0. 0. 0. 0. 0.]
1742665598507247833,1742665598,486431129,imu_link,-0.01763916015625,0.1019287109375,-0.0006103515625,0.99462890625,[0. 0. 0. 0. 0. 0. 0. 0. 0.],0.0,0.0,-0.001953125,[0. 0. 0. 0. 0. 0. 0. 0. 0.],-1.9921875,-0.3828125,9.61328125,[0. 0. 0. 0. 0. 0. 0. 0. 0.]
1742665598512779907,1742665598,509940759,imu_link,-0.01763916015625,0.1019287109375,-0.0006103515625,0.99462890625,[0. 0. 0. 0. 0. 0. 0. 0. 0.],0.0,0.0,-0.001953125,[0. 0. 0. 0. 0. 0. 0. 0. 0.],-1.9921875,-0.3828125,9.61328125,[0. 0. 0. 0. 0. 0. 0. 0. 0.]
1742665598533750963,1742665598,526692685,imu_link,-0.01763916015625,0.1019287109375,-0.0006103515625,0.99462890625,[0. 0. 0. 0. 0. 0. 0. 0. 0.],0.0,0.001953125,-0.001953125,[0. 0. 0. 0. 0. 0. 0. 0. 0.],-1.9921875,-0.34375,9.5390625,[0. 0. 0. 0. 0. 0. 0. 0. 0.]
1742665598561080426,1742665598,546401926,imu_link,-0.01763916015625,0.1019287109375,-0.0006103515625,0.99462890625,[0. 0. 0. 0. 0. 0. 0. 0. 0.],0.0,0.001953125,-0.001953125,[0. 0. 0. 0. 0. 0. 0. 0. 0.],-1.9921875,-0.3046875,9.609375,[0. 0. 0. 0. 0. 0. 0. 0. 0.]
1742665598571582426,1742665598,566875703,imu_link,-0.01763916015625,0.1019287109375,-0.0006103515625,0.99462890625,[0. 0. 0. 0. 0. 0. 0. 0. 0.],0.0,0.001953125,-0.001953125,[0. 0. 0. 0. 0. 0. 0. 0. 0.],-1.9921875,-0.3046875,9.609375,[0. 0. 0. 0. 0. 0. 0. 0. 0.]
1742665598607613018,1742665598,586383944,imu_link,-0.01763916015625,0.10205078125,-0.00067138671875,0.99462890625,[0. 0. 0. 0. 0. 0. 0. 0. 0.],0.001953125,0.001953125,-0.001953125,[0. 0. 0. 0. 0. 0. 0. 0. 0.],-1.953125,-0.3828125,9.578125,[0. 0. 0. 0. 0. 0. 0. 0. 0.]
1742665598617828944,1742665598,614366092,imu_link,-0.01763916015625,0.10205078125,-0.00067138671875,0.99462890625,[0. 0. 0. 0. 0. 0. 0. 0. 0.],0.001953125,0.001953125,-0.001953125,[0. 0. 0. 0. 0. 0. 0. 0. 0.],-1.9921875,-0.3046875,9.50390625,[0. 0. 0. 0. 0. 0. 0. 0. 0.]
1742665598632931759,1742665598,626397203,imu_link,-0.01763916015625,0.10205078125,-0.00067138671875,0.99462890625,[0. 0. 0. 0. 0. 0. 0. 0. 0.],-0.00390625,0.001953125,-0.005859375,[0. 0. 0. 0. 0. 0. 0. 0. 0.],-1.9921875,-0.3046875,9.50390625,[0. 0. 0. 0. 0. 0. 0. 0. 0.]
1742665598661059296,1742665598,646405166,imu_link,-0.0177001953125,0.10211181640625,-0.00079345703125,0.99462890625,[0. 0. 0. 0. 0. 0. 0. 0. 0.],-0.00390625,0.001953125,-0.005859375,[0. 0. 0. 0. 0. 0. 0. 0. 0.],-1.9921875,-0.34375,9.61328125,[0. 0. 0. 0. 0. 0. 0. 0. 0.]
1742665598670054444,1742665598,666427370,imu_link,-0.0177001953125,0.10211181640625,-0.00079345703125,0.99462890625,[0. 0. 0. 0. 0. 0. 0. 0. 0.],-0.00390625,0.001953125,-0.005859375,[0. 0. 0. 0. 0. 0. 0. 0. 0.],-1.9921875,-0.34375,9.61328125,[0. 0. 0. 0. 0. 0. 0. 0. 0.]
1742665598689729111,1742665598,686344259,imu_link,-0.0177001953125,0.10211181640625,-0.00079345703125,0.99462890625,[0. 0. 0. 0. 0. 0. 0. 0. 0.],-0.001953125,-0.00390625,-0.00390625,[0. 0. 0. 0. 0. 0. 0. 0. 0.],-2.03125,-0.3828125,9.578125,[0. 0. 0. 0. 0. 0. 0. 0. 0.]
1742665598721003370,1742665598,706410037,imu_link,-0.017578125,0.10211181640625,-0.00091552734375,0.99462890625,[0. 0. 0. 0. 0. 0. 0. 0. 0.],-0.001953125,-0.00390625,-0.00390625,[0. 0. 0. 0. 0. 0. 0. 0. 0.],-2.03125,-0.34375,9.5,[0. 0. 0. 0. 0. 0. 0. 0. 0.]
1742665598732893944,1742665598,726378425,imu_link,-0.017578125,0.10211181640625,-0.00091552734375,0.99462890625,[0. 0. 0. 0. 0. 0. 0. 0. 0.],-0.001953125,-0.00390625,-0.0078125,[0. 0. 0. 0. 0. 0. 0. 0. 0.],-2.03125,-0.34375,9.5,[0. 0. 0. 0. 0. 0. 0. 0. 0.]
1742665598761028388,1742665598,746566592,imu_link,-0.0174560546875,0.10211181640625,-0.0009765625,0.99462890625,[0. 0. 0. 0. 0. 0. 0. 0. 0.],-0.001953125,-0.00390625,-0.0078125,[0. 0. 0. 0. 0. 0. 0. 0. 0.],-1.953125,-0.3828125,9.61328125,[0. 0. 0. 0. 0. 0. 0. 0. 0.]
1742665598777135537,1742665598,766431907,imu_link,-0.0174560546875,0.10211181640625,-0.0009765625,0.99462890625,[0. 0. 0. 0. 0. 0. 0. 0. 0.],-0.001953125,-0.00390625,-0.0078125,[0. 0. 0. 0. 0. 0. 0. 0. 0.],-1.9921875,-0.34375,9.578125,[0. 0. 0. 0. 0. 0. 0. 0. 0.]
1742665598789883907,1742665598,786402907,imu_link,-0.0174560546875,0.10211181640625,-0.0009765625,0.99462890625,[0. 0. 0. 0. 0. 0. 0. 0. 0.],0.001953125,-0.001953125,0.001953125,[0. 0. 0. 0. 0. 0. 0. 0. 0.],-1.9921875,-0.34375,9.578125,[0. 0. 0. 0. 0. 0. 0. 0. 0.]
1742665598820662907,1742665598,806383851,imu_link,-0.017333984375,0.10211181640625,-0.00103759765625,0.99462890625,[0. 0. 0. 0. 0. 0. 0. 0. 0.],0.001953125,-0.001953125,0.001953125,[0. 0. 0. 0. 0. 0. 0. 0. 0.],-1.9921875,-0.3046875,9.58203125,[0. 0. 0. 0. 0. 0. 0. 0. 0.]
1742665598836621296,1742665598,826391870,imu_link,-0.017333984375,0.10211181640625,-0.00103759765625,0.99462890625,[0. 0. 0. 0. 0. 0. 0. 0. 0.],-0.005859375,0.00390625,-0.00390625,[0. 0. 0. 0. 0. 0. 0. 0. 0.],-1.9921875,-0.34375,9.61328125,[0. 0. 0. 0. 0. 0. 0. 0. 0.]
1742665598859607055,1742665598,846359036,imu_link,-0.01727294921875,0.10223388671875,-0.0010986328125,0.99462890625,[0. 0. 0. 0. 0. 0. 0. 0. 0.],-0.005859375,0.00390625,-0.00390625,[0. 0. 0. 0. 0. 0. 0. 0. 0.],-1.9921875,-0.34375,9.61328125,[0. 0. 0. 0. 0. 0. 0. 0. 0.]
1742665598869791407,1742665598,866363018,imu_link,-0.01727294921875,0.10223388671875,-0.0010986328125,0.99462890625,[0. 0. 0. 0. 0. 0. 0. 0. 0.],-0.005859375,0.00390625,-0.00390625,[0. 0. 0. 0. 0. 0. 0. 0. 0.],-1.9921875,-0.3046875,9.54296875,[0. 0. 0. 0. 0. 0. 0. 0. 0.]
1742665598906692796,1742665598,886480444,imu_link,-0.0172119140625,0.10235595703125,-0.00128173828125,0.99462890625,[0. 0. 0. 0. 0. 0. 0. 0. 0.],-0.0078125,0.00390625,-0.005859375,[0. 0. 0. 0. 0. 0. 0. 0. 0.],-1.9921875,-0.3046875,9.54296875,[0. 0. 0. 0. 0. 0. 0. 0. 0.]
1742665598911549907,1742665598,909372944,imu_link,-0.0172119140625,0.10235595703125,-0.00128173828125,0.99462890625,[0. 0. 0. 0. 0. 0. 0. 0. 0.],-0.0078125,0.00390625,-0.005859375,[0. 0. 0. 0. 0. 0. 0. 0. 0.],-1.9921875,-0.26953125,9.5390625,[0. 0. 0. 0. 0. 0. 0. 0. 0.]
1742665598938136092,1742665598,926494481,imu_link,-0.0172119140625,0.10235595703125,-0.00128173828125,0.99462890625,[0. 0. 0. 0. 0. 0. 0. 0. 0.],-0.005859375,0.001953125,-0.00390625,[0. 0. 0. 0. 0. 0. 0. 0. 0.],-1.87890625,-0.421875,9.578125,[0. 0. 0. 0. 0. 0. 0. 0. 0.]
1742665598963171129,1742665598,946349629,imu_link,-0.01715087890625,0.10235595703125,-0.00146484375,0.99456787109375,[0. 0. 0. 0. 0. 0. 0. 0. 0.],-0.005859375,0.001953125,-0.00390625,[0. 0. 0. 0. 0. 0. 0. 0. 0.],-2.03125,-0.34375,9.61328125,[0. 0. 0. 0. 0. 0. 0. 0. 0.]
1742665598969765851,1742665598,966341888,imu_link,-0.01715087890625,0.10235595703125,-0.00146484375,0.99456787109375,[0. 0. 0. 0. 0. 0. 0. 0. 0.],-0.005859375,0.001953125,-0.00390625,[0. 0. 0. 0. 0. 0. 0. 0. 0.],-2.03125,-0.34375,9.61328125,[0. 0. 0. 0. 0. 0. 0. 0. 0.]
1742665599007150147,1742665598,986358222,imu_link,-0.0172119140625,0.1024169921875,-0.0015869140625,0.99456787109375,[0. 0. 0. 0. 0. 0. 0. 0. 0.],-0.00390625,0.001953125,-0.005859375,[0. 0. 0. 0. 0. 0. 0. 0. 0.],-2.10546875,-0.26953125,9.58203125,[0. 0. 0. 0. 0. 0. 0. 0. 0.]
1742665599011979518,1742665599,9846351,imu_link,-0.0172119140625,0.1024169921875,-0.0015869140625,0.99456787109375,[0. 0. 0. 0. 0. 0. 0. 0. 0.],-0.00390625,0.001953125,-0.005859375,[0. 0. 0. 0. 0. 0. 0. 0. 0.],-2.10546875,-0.26953125,9.58203125,[0. 0. 0. 0. 0. 0. 0. 0. 0.]
1742665599038045462,1742665599,26503814,imu_link,-0.0172119140625,0.1024169921875,-0.0015869140625,0.99456787109375,[0. 0. 0. 0. 0. 0. 0. 0. 0.],-0.00390625,0.001953125,-0.00390625,[0. 0. 0. 0. 0. 0. 0. 0. 0.],-1.9921875,-0.34375,9.578125,[0. 0. 0. 0. 0. 0. 0. 0. 0.]
1742665599059872092,1742665599,46410166,imu_link,-0.01727294921875,0.10247802734375,-0.001708984375,0.99456787109375,[0. 0. 0. 0. 0. 0. 0. 0. 0.],-0.00390625,0.001953125,-0.00390625,[0. 0. 0. 0. 0. 0. 0. 0. 0.],-1.9921875,-0.3046875,9.58203125,[0. 0. 0. 0. 0. 0. 0. 0. 0.]
1742665599070561629,1742665599,66898555,imu_link,-0.01727294921875,0.10247802734375,-0.001708984375,0.99456787109375,[0. 0. 0. 0. 0. 0. 0. 0. 0.],-0.00390625,0.001953125,-0.00390625,[0. 0. 0. 0. 0. 0. 0. 0. 0.],-1.9921875,-0.3046875,9.58203125,[0. 0. 0. 0. 0. 0. 0. 0. 0.]
1742665599107069240,1742665599,86399573,imu_link,-0.01727294921875,0.1025390625,-0.0018310546875,0.99456787109375,[0. 0. 0. 0. 0. 0. 0. 0. 0.],0.001953125,0.005859375,-0.005859375,[0. 0. 0. 0. 0. 0. 0. 0. 0.],-2.03125,-0.34375,9.578125,[0. 0. 0. 0. 0. 0. 0. 0. 0.]
1742665599111764703,1742665599,109747092,imu_link,-0.01727294921875,0.1025390625,-0.0018310546875,0.99456787109375,[0. 0. 0. 0. 0. 0. 0. 0. 0.],0.001953125,0.005859375,-0.005859375,[0. 0. 0. 0. 0. 0. 0. 0. 0.],-2.03125,-0.34375,9.578125,[0. 0. 0. 0. 0. 0. 0. 0. 0.]
1742665599138260740,1742665599,126430666,imu_link,-0.01727294921875,0.1025390625,-0.0018310546875,0.99456787109375,[0. 0. 0. 0. 0. 0. 0. 0. 0.],0.00390625,0.005859375,-0.001953125,[0. 0. 0. 0. 0. 0. 0. 0. 0.],-1.9921875,-0.3828125,9.578125,[0. 0. 0. 0. 0. 0. 0. 0. 0.]
1742665599160448407,1742665599,146406388,imu_link,-0.017333984375,0.10260009765625,-0.001953125,0.99456787109375,[0. 0. 0. 0. 0. 0. 0. 0. 0.],0.00390625,0.005859375,-0.001953125,[0. 0. 0. 0. 0. 0. 0. 0. 0.],-2.03125,-0.3046875,9.609375,[0. 0. 0. 0. 0. 0. 0. 0. 0.]
1742665599169944999,1742665599,166435925,imu_link,-0.017333984375,0.10260009765625,-0.001953125,0.99456787109375,[0. 0. 0. 0. 0. 0. 0. 0. 0.],0.00390625,0.005859375,-0.001953125,[0. 0. 0. 0. 0. 0. 0. 0. 0.],-2.03125,-0.3046875,9.609375,[0. 0. 0. 0. 0. 0. 0. 0. 0.]
1742665599206837777,1742665599,186443647,imu_link,-0.017333984375,0.1026611328125,-0.00201416015625,0.99456787109375,[0. 0. 0. 0. 0. 0. 0. 0. 0.],0.0078125,0.00390625,-0.001953125,[0. 0. 0. 0. 0. 0. 0. 0. 0.],-2.03125,-0.34375,9.4609375,[0. 0. 0. 0. 0. 0. 0. 0. 0.]
1742665599216581370,1742665599,212964851,imu_link,-0.017333984375,0.1026611328125,-0.00201416015625,0.99456787109375,[0. 0. 0. 0. 0. 0. 0. 0. 0.],0.0078125,0.00390625,-0.001953125,[0. 0. 0. 0. 0. 0. 0. 0. 0.],-1.953125,-0.34375,9.61328125,[0. 0. 0. 0. 0. 0. 0. 0. 0.]
1742665599233025277,1742665599,226448425,imu_link,-0.017333984375,0.1026611328125,-0.00201416015625,0.99456787109375,[0. 0. 0. 0. 0. 0. 0. 0. 0.],0.009765625,0.001953125,0.00390625,[0. 0. 0. 0. 0. 0. 0. 0. 0.],-1.953125,-0.34375,9.61328125,[0. 0. 0. 0. 0. 0. 0. 0. 0.]
1742665599260687333,1742665599,246650814,imu_link,-0.0172119140625,0.10272216796875,-0.0020751953125,0.99456787109375,[0. 0. 0. 0. 0. 0. 0. 0. 0.],0.009765625,0.001953125,0.00390625,[0. 0. 0. 0. 0. 0. 0. 0. 0.],-1.9140625,-0.3828125,9.5390625,[0. 0. 0. 0. 0. 0. 0. 0. 0.]
1742665599269989629,1742665599,266430147,imu_link,-0.0172119140625,0.10272216796875,-0.0020751953125,0.99456787109375,[0. 0. 0. 0. 0. 0. 0. 0. 0.],0.009765625,0.001953125,0.00390625,[0. 0. 0. 0. 0. 0. 0. 0. 0.],-1.9140625,-0.3828125,9.5390625,[0. 0. 0. 0. 0. 0. 0. 0. 0.]
1742665599310564462,1742665599,286422962,imu_link,-0.01715087890625,0.102783203125,-0.002197265625,0.99456787109375,[0. 0. 0. 0. 0. 0. 0. 0. 0.],0.0078125,0.00390625,-0.00390625,[0. 0. 0. 0. 0. 0. 0. 0. 0.],-1.9921875,-0.34375,9.61328125,[0. 0. 0. 0. 0. 0. 0. 0. 0.]
1742665599315984018,1742665599,312365314,imu_link,-0.01715087890625,0.102783203125,-0.002197265625,0.99456787109375,[0. 0. 0. 0. 0. 0. 0. 0. 0.],0.0078125,0.00390625,-0.00390625,[0. 0. 0. 0. 0. 0. 0. 0. 0.],-2.03125,-0.34375,9.61328125,[0. 0. 0. 0. 0. 0. 0. 0. 0.]
1742665599333395629,1742665599,326374703,imu_link,-0.01715087890625,0.102783203125,-0.002197265625,0.99456787109375,[0. 0. 0. 0. 0. 0. 0. 0. 0.],0.005859375,0.00390625,0.0,[0. 0. 0. 0. 0. 0. 0. 0. 0.],-2.03125,-0.34375,9.61328125,[0. 0. 0. 0. 0. 0. 0. 0. 0.]
1742665599359646740,1742665599,346348610,imu_link,-0.01715087890625,0.10284423828125,-0.00225830078125,0.99456787109375,[0. 0. 0. 0. 0. 0. 0. 0. 0.],0.005859375,0.00390625,0.0,[0. 0. 0. 0. 0. 0. 0. 0. 0.],-1.9921875,-0.3046875,9.54296875,[0. 0. 0. 0. 0. 0. 0. 0. 0.]
1742665599377379536,1742665599,366433999,imu_link,-0.01715087890625,0.10284423828125,-0.00225830078125,0.99456787109375,[0. 0. 0. 0. 0. 0. 0. 0. 0.],0.005859375,0.00390625,0.0,[0. 0. 0. 0. 0. 0. 0. 0. 0.],-1.9921875,-0.3046875,9.58203125,[0. 0. 0. 0. 0. 0. 0. 0. 0.]
1742665599390093703,1742665599,386474647,imu_link,-0.01715087890625,0.10284423828125,-0.00225830078125,0.99456787109375,[0. 0. 0. 0. 0. 0. 0. 0. 0.],0.0078125,0.001953125,-0.001953125,[0. 0. 0. 0. 0. 0. 0. 0. 0.],-1.9921875,-0.3046875,9.58203125,[0. 0. 0. 0. 0. 0. 0. 0. 0.]
1742665599420440240,1742665599,406405036,imu_link,-0.01708984375,0.1029052734375,-0.0023193359375,0.99456787109375,[0. 0. 0. 0. 0. 0. 0. 0. 0.],0.0078125,0.001953125,-0.001953125,[0. 0. 0. 0. 0. 0. 0. 0. 0.],-2.03125,-0.3046875,9.609375,[0. 0. 0. 0. 0. 0. 0. 0. 0.]
1742665599437233573,1742665599,426413629,imu_link,-0.01708984375,0.1029052734375,-0.0023193359375,0.99456787109375,[0. 0. 0. 0. 0. 0. 0. 0. 0.],0.005859375,0.0,-0.00390625,[0. 0. 0. 0. 0. 0. 0. 0. 0.],-1.9921875,-0.3828125,9.578125,[0. 0. 0. 0. 0. 0. 0. 0. 0.]
