timestamp,header.stamp.sec,header.stamp.nanosec,header.frame_id,orientation.x,orientation.y,orientation.z,orientation.w,orientation_covariance,angular_velocity.x,angular_velocity.y,angular_velocity.z,angular_velocity_covariance,linear_acceleration.x,linear_acceleration.y,linear_acceleration.z,linear_acceleration_covariance
1742663961286423080,1742663961,263698843,imu_link,-0.015625,0.098388671875,-0.00140380859375,0.9949951171875,[0. 0. 0. 0. 0. 0. 0. 0. 0.],-0.001953125,0.001953125,-0.001953125,[0. 0. 0. 0. 0. 0. 0. 0. 0.],-1.9140625,-0.3046875,9.58203125,[0. 0. 0. 0. 0. 0. 0. 0. 0.]
1742663961295434092,1742663961,292463817,imu_link,-0.015625,0.098388671875,-0.00140380859375,0.9949951171875,[0. 0. 0. 0. 0. 0. 0. 0. 0.],-0.001953125,0.001953125,-0.001953125,[0. 0. 0. 0. 0. 0. 0. 0. 0.],-1.9140625,-0.3046875,9.58203125,[0. 0. 0. 0. 0. 0. 0. 0. 0.]
1742663961310555268,1742663961,303392210,imu_link,-0.015625,0.098388671875,-0.00140380859375,0.9949951171875,[0. 0. 0. 0. 0. 0. 0. 0. 0.],-0.00390625,-0.001953125,0.0,[0. 0. 0. 0. 0. 0. 0. 0. 0.],-1.9140625,-0.3046875,9.58203125,[0. 0. 0. 0. 0. 0. 0. 0. 0.]
1742663961338300662,1742663961,323332709,imu_link,-0.015625,0.09832763671875,-0.00140380859375,0.99505615234375,[0. 0. 0. 0. 0. 0. 0. 0. 0.],-0.00390625,-0.001953125,0.0,[0. 0. 0. 0. 0. 0. 0. 0. 0.],-1.9140625,-0.3046875,9.58203125,[0. 0. 0. 0. 0. 0. 0. 0. 0.]
1742663961347550602,1742663961,344122787,imu_link,-0.015625,0.09832763671875,-0.00140380859375,0.99505615234375,[0. 0. 0. 0. 0. 0. 0. 0. 0.],-0.00390625,-0.001953125,0.0,[0. 0. 0. 0. 0. 0. 0. 0. 0.],-1.9140625,-0.3046875,9.58203125,[0. 0. 0. 0. 0. 0. 0. 0. 0.]
1742663961383115077,1742663961,363880859,imu_link,-0.015625,0.098388671875,-0.00140380859375,0.99505615234375,[0. 0. 0. 0. 0. 0. 0. 0. 0.],0.0,0.0,0.0,[0. 0. 0. 0. 0. 0. 0. 0. 0.],-1.9140625,-0.3046875,9.58203125,[0. 0. 0. 0. 0. 0. 0. 0. 0.]
1742663961392301201,1742663961,390594062,imu_link,-0.015625,0.098388671875,-0.00140380859375,0.99505615234375,[0. 0. 0. 0. 0. 0. 0. 0. 0.],0.0,0.0,0.0,[0. 0. 0. 0. 0. 0. 0. 0. 0.],-1.9140625,-0.3046875,9.58203125,[0. 0. 0. 0. 0. 0. 0. 0. 0.]
1742663961410802933,1742663961,403508430,imu_link,-0.015625,0.098388671875,-0.00140380859375,0.99505615234375,[0. 0. 0. 0. 0. 0. 0. 0. 0.],-0.001953125,0.0,0.0,[0. 0. 0. 0. 0. 0. 0. 0. 0.],-1.9140625,-0.3046875,9.58203125,[0. 0. 0. 0. 0. 0. 0. 0. 0.]
1742663961437829082,1742663961,423327613,imu_link,-0.015625,0.098388671875,-0.00140380859375,0.99505615234375,[0. 0. 0. 0. 0. 0. 0. 0. 0.],-0.001953125,0.0,0.0,[0. 0. 0. 0. 0. 0. 0. 0. 0.],-1.9140625,-0.3046875,9.58203125,[0. 0. 0. 0. 0. 0. 0. 0. 0.]
1742663961450945192,1742663961,444081209,imu_link,-0.015625,0.098388671875,-0.00140380859375,0.99505615234375,[0. 0. 0. 0. 0. 0. 0. 0. 0.],-0.001953125,0.0,0.0,[0. 0. 0. 0. 0. 0. 0. 0. 0.],-1.9140625,-0.3046875,9.58203125,[0. 0. 0. 0. 0. 0. 0. 0. 0.]
1742663961467276800,1742663961,463934615,imu_link,-0.015625,0.098388671875,-0.00140380859375,0.99505615234375,[0. 0. 0. 0. 0. 0. 0. 0. 0.],-0.001953125,0.001953125,0.0,[0. 0. 0. 0. 0. 0. 0. 0. 0.],-1.9140625,-0.3046875,9.58203125,[0. 0. 0. 0. 0. 0. 0. 0. 0.]
1742663961498017766,1742663961,483936244,imu_link,-0.01568603515625,0.09832763671875,-0.00140380859375,0.99505615234375,[0. 0. 0. 0. 0. 0. 0. 0. 0.],-0.001953125,0.001953125,0.0,[0. 0. 0. 0. 0. 0. 0. 0. 0.],-1.9140625,-0.3046875,9.58203125,[0. 0. 0. 0. 0. 0. 0. 0. 0.]
1742663961515327047,1742663961,503981188,imu_link,-0.01568603515625,0.09832763671875,-0.00140380859375,0.99505615234375,[0. 0. 0. 0. 0. 0. 0. 0. 0.],0.0,0.0,0.001953125,[0. 0. 0. 0. 0. 0. 0. 0. 0.],-1.9140625,-0.3046875,9.58203125,[0. 0. 0. 0. 0. 0. 0. 0. 0.]
1742663961856612524,1742663961,524161189,imu_link,-0.015625,0.09832763671875,-0.00140380859375,0.99505615234375,[0. 0. 0. 0. 0. 0. 0. 0. 0.],0.0,0.0,0.001953125,[0. 0. 0. 0. 0. 0. 0. 0. 0.],-1.9140625,-0.3046875,9.58203125,[0. 0. 0. 0. 0. 0. 0. 0. 0.]
1742663961856649691,1742663961,543303405,imu_link,-0.015625,0.09832763671875,-0.00140380859375,0.99505615234375,[0. 0. 0. 0. 0. 0. 0. 0. 0.],0.0,0.0,0.001953125,[0. 0. 0. 0. 0. 0. 0. 0. 0.],-1.9140625,-0.3046875,9.58203125,[0. 0. 0. 0. 0. 0. 0. 0. 0.]
1742663961856662932,1742663961,563325275,imu_link,-0.015625,0.09832763671875,-0.00140380859375,0.99505615234375,[0. 0. 0. 0. 0. 0. 0. 0. 0.],0.0,-0.001953125,-0.001953125,[0. 0. 0. 0. 0. 0. 0. 0. 0.],-1.9140625,-0.3046875,9.58203125,[0. 0. 0. 0. 0. 0. 0. 0. 0.]
1742663961856739284,1742663961,583560739,imu_link,-0.015625,0.09832763671875,-0.00140380859375,0.99505615234375,[0. 0. 0. 0. 0. 0. 0. 0. 0.],0.0,-0.001953125,-0.001953125,[0. 0. 0. 0. 0. 0. 0. 0. 0.],-1.9140625,-0.3046875,9.58203125,[0. 0. 0. 0. 0. 0. 0. 0. 0.]
1742663961856753025,1742663961,603300311,imu_link,-0.015625,0.09832763671875,-0.00140380859375,0.99505615234375,[0. 0. 0. 0. 0. 0. 0. 0. 0.],0.001953125,-0.001953125,0.0,[0. 0. 0. 0. 0. 0. 0. 0. 0.],-1.9140625,-0.3046875,9.58203125,[0. 0. 0. 0. 0. 0. 0. 0. 0.]
1742663961858697258,1742663961,623368125,imu_link,-0.015625,0.0982666015625,-0.00140380859375,0.99505615234375,[0. 0. 0. 0. 0. 0. 0. 0. 0.],0.001953125,-0.001953125,0.0,[0. 0. 0. 0. 0. 0. 0. 0. 0.],-1.9140625,-0.3046875,9.58203125,[0. 0. 0. 0. 0. 0. 0. 0. 0.]
1742663961858714517,1742663961,643297809,imu_link,-0.015625,0.0982666015625,-0.00140380859375,0.99505615234375,[0. 0. 0. 0. 0. 0. 0. 0. 0.],0.001953125,-0.001953125,0.0,[0. 0. 0. 0. 0. 0. 0. 0. 0.],-1.9140625,-0.3046875,9.58203125,[0. 0. 0. 0. 0. 0. 0. 0. 0.]
1742663961858881555,1742663961,663375124,imu_link,-0.015625,0.09820556640625,-0.00140380859375,0.99505615234375,[0. 0. 0. 0. 0. 0. 0. 0. 0.],-0.001953125,-0.001953125,0.0,[0. 0. 0. 0. 0. 0. 0. 0. 0.],-1.9140625,-0.3046875,9.58203125,[0. 0. 0. 0. 0. 0. 0. 0. 0.]
1742663961859534355,1742663961,684643815,imu_link,-0.015625,0.09820556640625,-0.00140380859375,0.99505615234375,[0. 0. 0. 0. 0. 0. 0. 0. 0.],-0.001953125,-0.001953125,0.0,[0. 0. 0. 0. 0. 0. 0. 0. 0.],-1.9140625,-0.3046875,9.58203125,[0. 0. 0. 0. 0. 0. 0. 0. 0.]
1742663961859647337,1742663961,703376919,imu_link,-0.015625,0.09820556640625,-0.00140380859375,0.99505615234375,[0. 0. 0. 0. 0. 0. 0. 0. 0.],0.0,0.0,0.0,[0. 0. 0. 0. 0. 0. 0. 0. 0.],-1.9140625,-0.3046875,9.58203125,[0. 0. 0. 0. 0. 0. 0. 0. 0.]
1742663961860352637,1742663961,723299807,imu_link,-0.015625,0.0982666015625,-0.00140380859375,0.99505615234375,[0. 0. 0. 0. 0. 0. 0. 0. 0.],0.0,0.0,0.0,[0. 0. 0. 0. 0. 0. 0. 0. 0.],-1.9140625,-0.3046875,9.58203125,[0. 0. 0. 0. 0. 0. 0. 0. 0.]
1742663961860432638,1742663961,743295695,imu_link,-0.015625,0.0982666015625,-0.00140380859375,0.99505615234375,[0. 0. 0. 0. 0. 0. 0. 0. 0.],0.0,0.0,0.0,[0. 0. 0. 0. 0. 0. 0. 0. 0.],-1.9140625,-0.3046875,9.58203125,[0. 0. 0. 0. 0. 0. 0. 0. 0.]
1742663961861170253,1742663961,763427510,imu_link,-0.015625,0.0982666015625,-0.0013427734375,0.99505615234375,[0. 0. 0. 0. 0. 0. 0. 0. 0.],0.0,0.001953125,0.0,[0. 0. 0. 0. 0. 0. 0. 0. 0.],-1.9140625,-0.3046875,9.58203125,[0. 0. 0. 0. 0. 0. 0. 0. 0.]
1742663961861290939,1742663961,785548669,imu_link,-0.015625,0.0982666015625,-0.0013427734375,0.99505615234375,[0. 0. 0. 0. 0. 0. 0. 0. 0.],0.0,0.001953125,0.0,[0. 0. 0. 0. 0. 0. 0. 0. 0.],-1.9140625,-0.3046875,9.58203125,[0. 0. 0. 0. 0. 0. 0. 0. 0.]
1742663961861320550,1742663961,803352471,imu_link,-0.015625,0.0982666015625,-0.0013427734375,0.99505615234375,[0. 0. 0. 0. 0. 0. 0. 0. 0.],-0.001953125,0.0,0.0,[0. 0. 0. 0. 0. 0. 0. 0. 0.],-1.9140625,-0.3046875,9.58203125,[0. 0. 0. 0. 0. 0. 0. 0. 0.]
1742663961861365180,1742663961,823289748,imu_link,-0.01568603515625,0.09832763671875,-0.0013427734375,0.99505615234375,[0. 0. 0. 0. 0. 0. 0. 0. 0.],-0.001953125,0.0,0.0,[0. 0. 0. 0. 0. 0. 0. 0. 0.],-1.9140625,-0.3046875,9.58203125,[0. 0. 0. 0. 0. 0. 0. 0. 0.]
1742663961861402199,1742663961,843324340,imu_link,-0.01568603515625,0.09832763671875,-0.0013427734375,0.99505615234375,[0. 0. 0. 0. 0. 0. 0. 0. 0.],-0.001953125,0.0,0.0,[0. 0. 0. 0. 0. 0. 0. 0. 0.],-1.9140625,-0.3046875,9.58203125,[0. 0. 0. 0. 0. 0. 0. 0. 0.]
1742663961884755772,1742663961,863447747,imu_link,-0.01568603515625,0.09832763671875,-0.0013427734375,0.99505615234375,[0. 0. 0. 0. 0. 0. 0. 0. 0.],0.0,0.001953125,0.0,[0. 0. 0. 0. 0. 0. 0. 0. 0.],-1.9140625,-0.3046875,9.58203125,[0. 0. 0. 0. 0. 0. 0. 0. 0.]
1742663961892504815,1742663961,886803913,imu_link,-0.01568603515625,0.09832763671875,-0.0013427734375,0.99505615234375,[0. 0. 0. 0. 0. 0. 0. 0. 0.],0.0,0.001953125,0.0,[0. 0. 0. 0. 0. 0. 0. 0. 0.],-1.9140625,-0.3046875,9.58203125,[0. 0. 0. 0. 0. 0. 0. 0. 0.]
1742663961909975356,1742663961,903390097,imu_link,-0.01568603515625,0.09832763671875,-0.0013427734375,0.99505615234375,[0. 0. 0. 0. 0. 0. 0. 0. 0.],0.0,-0.001953125,0.0,[0. 0. 0. 0. 0. 0. 0. 0. 0.],-1.9140625,-0.3046875,9.58203125,[0. 0. 0. 0. 0. 0. 0. 0. 0.]
1742663961938106530,1742663961,923394726,imu_link,-0.01568603515625,0.09832763671875,-0.0013427734375,0.99505615234375,[0. 0. 0. 0. 0. 0. 0. 0. 0.],0.0,-0.001953125,0.0,[0. 0. 0. 0. 0. 0. 0. 0. 0.],-1.9140625,-0.3046875,9.58203125,[0. 0. 0. 0. 0. 0. 0. 0. 0.]
1742663961946773077,1742663961,943373411,imu_link,-0.01568603515625,0.09832763671875,-0.0013427734375,0.99505615234375,[0. 0. 0. 0. 0. 0. 0. 0. 0.],0.0,-0.001953125,0.0,[0. 0. 0. 0. 0. 0. 0. 0. 0.],-1.9140625,-0.3046875,9.58203125,[0. 0. 0. 0. 0. 0. 0. 0. 0.]
1742663961989500721,1742663961,963525151,imu_link,-0.01568603515625,0.09832763671875,-0.0013427734375,0.99505615234375,[0. 0. 0. 0. 0. 0. 0. 0. 0.],0.001953125,0.001953125,0.0,[0. 0. 0. 0. 0. 0. 0. 0. 0.],-1.9140625,-0.3046875,9.58203125,[0. 0. 0. 0. 0. 0. 0. 0. 0.]
1742663961994460915,1742663961,991369731,imu_link,-0.01568603515625,0.09832763671875,-0.0013427734375,0.99505615234375,[0. 0. 0. 0. 0. 0. 0. 0. 0.],0.001953125,0.001953125,0.0,[0. 0. 0. 0. 0. 0. 0. 0. 0.],-1.9140625,-0.3046875,9.58203125,[0. 0. 0. 0. 0. 0. 0. 0. 0.]
1742663962011018488,1742663962,4105338,imu_link,-0.01568603515625,0.09832763671875,-0.0013427734375,0.99505615234375,[0. 0. 0. 0. 0. 0. 0. 0. 0.],-0.001953125,0.001953125,0.0,[0. 0. 0. 0. 0. 0. 0. 0. 0.],-1.9140625,-0.3046875,9.58203125,[0. 0. 0. 0. 0. 0. 0. 0. 0.]
1742663962037718709,1742663962,23401223,imu_link,-0.01568603515625,0.098388671875,-0.0013427734375,0.99505615234375,[0. 0. 0. 0. 0. 0. 0. 0. 0.],-0.001953125,0.001953125,0.0,[0. 0. 0. 0. 0. 0. 0. 0. 0.],-1.9140625,-0.3046875,9.58203125,[0. 0. 0. 0. 0. 0. 0. 0. 0.]
1742663962049458126,1742663962,43308962,imu_link,-0.01568603515625,0.098388671875,-0.0013427734375,0.99505615234375,[0. 0. 0. 0. 0. 0. 0. 0. 0.],-0.001953125,0.001953125,0.0,[0. 0. 0. 0. 0. 0. 0. 0. 0.],-1.9140625,-0.3046875,9.58203125,[0. 0. 0. 0. 0. 0. 0. 0. 0.]
1742663962066695128,1742663962,63308647,imu_link,-0.01568603515625,0.098388671875,-0.0013427734375,0.99505615234375,[0. 0. 0. 0. 0. 0. 0. 0. 0.],0.0,0.0,0.0,[0. 0. 0. 0. 0. 0. 0. 0. 0.],-1.9140625,-0.3046875,9.58203125,[0. 0. 0. 0. 0. 0. 0. 0. 0.]
1742663962097814411,1742663962,83551370,imu_link,-0.0157470703125,0.098388671875,-0.0013427734375,0.9949951171875,[0. 0. 0. 0. 0. 0. 0. 0. 0.],0.0,0.0,0.0,[0. 0. 0. 0. 0. 0. 0. 0. 0.],-1.9140625,-0.3046875,9.58203125,[0. 0. 0. 0. 0. 0. 0. 0. 0.]
1742663962115044173,1742663962,103964816,imu_link,-0.0157470703125,0.098388671875,-0.0013427734375,0.9949951171875,[0. 0. 0. 0. 0. 0. 0. 0. 0.],0.00390625,-0.001953125,0.001953125,[0. 0. 0. 0. 0. 0. 0. 0. 0.],-1.9140625,-0.3046875,9.58203125,[0. 0. 0. 0. 0. 0. 0. 0. 0.]
1742663962137010498,1742663962,123998482,imu_link,-0.01568603515625,0.098388671875,-0.0013427734375,0.99505615234375,[0. 0. 0. 0. 0. 0. 0. 0. 0.],0.00390625,-0.001953125,0.001953125,[0. 0. 0. 0. 0. 0. 0. 0. 0.],-1.9140625,-0.3046875,9.58203125,[0. 0. 0. 0. 0. 0. 0. 0. 0.]
1742663962149813254,1742663962,143304422,imu_link,-0.01568603515625,0.098388671875,-0.0013427734375,0.99505615234375,[0. 0. 0. 0. 0. 0. 0. 0. 0.],0.00390625,-0.001953125,0.001953125,[0. 0. 0. 0. 0. 0. 0. 0. 0.],-1.9140625,-0.3046875,9.58203125,[0. 0. 0. 0. 0. 0. 0. 0. 0.]
1742663962166720255,1742663962,163328662,imu_link,-0.01568603515625,0.098388671875,-0.0013427734375,0.99505615234375,[0. 0. 0. 0. 0. 0. 0. 0. 0.],0.0,-0.001953125,0.0,[0. 0. 0. 0. 0. 0. 0. 0. 0.],-1.9140625,-0.3046875,9.58203125,[0. 0. 0. 0. 0. 0. 0. 0. 0.]
1742663962197587147,1742663962,183400569,imu_link,-0.01568603515625,0.09832763671875,-0.0013427734375,0.99505615234375,[0. 0. 0. 0. 0. 0. 0. 0. 0.],0.0,-0.001953125,0.0,[0. 0. 0. 0. 0. 0. 0. 0. 0.],-1.9140625,-0.3046875,9.58203125,[0. 0. 0. 0. 0. 0. 0. 0. 0.]
1742663962214920354,1742663962,203297882,imu_link,-0.01568603515625,0.09832763671875,-0.0013427734375,0.99505615234375,[0. 0. 0. 0. 0. 0. 0. 0. 0.],-0.001953125,0.001953125,-0.001953125,[0. 0. 0. 0. 0. 0. 0. 0. 0.],-1.9140625,-0.3046875,9.58203125,[0. 0. 0. 0. 0. 0. 0. 0. 0.]
1742663962239883362,1742663962,223408123,imu_link,-0.01568603515625,0.09832763671875,-0.0013427734375,0.99505615234375,[0. 0. 0. 0. 0. 0. 0. 0. 0.],-0.001953125,0.001953125,-0.001953125,[0. 0. 0. 0. 0. 0. 0. 0. 0.],-1.9140625,-0.3046875,9.58203125,[0. 0. 0. 0. 0. 0. 0. 0. 0.]
1742663962246762622,1742663962,243301159,imu_link,-0.01568603515625,0.09832763671875,-0.0013427734375,0.99505615234375,[0. 0. 0. 0. 0. 0. 0. 0. 0.],-0.001953125,0.001953125,-0.001953125,[0. 0. 0. 0. 0. 0. 0. 0. 0.],-1.9140625,-0.3046875,9.58203125,[0. 0. 0. 0. 0. 0. 0. 0. 0.]
1742663962285475651,1742663962,263411899,imu_link,-0.01568603515625,0.09832763671875,-0.0013427734375,0.99505615234375,[0. 0. 0. 0. 0. 0. 0. 0. 0.],0.0,0.001953125,0.0,[0. 0. 0. 0. 0. 0. 0. 0. 0.],-1.87890625,-0.3046875,9.578125,[0. 0. 0. 0. 0. 0. 0. 0. 0.]
1742663962289957120,1742663962,288231481,imu_link,-0.01568603515625,0.09832763671875,-0.0013427734375,0.99505615234375,[0. 0. 0. 0. 0. 0. 0. 0. 0.],0.0,0.001953125,0.0,[0. 0. 0. 0. 0. 0. 0. 0. 0.],-1.87890625,-0.3046875,9.578125,[0. 0. 0. 0. 0. 0. 0. 0. 0.]
1742663962315257371,1742663962,303386509,imu_link,-0.01568603515625,0.09832763671875,-0.0013427734375,0.99505615234375,[0. 0. 0. 0. 0. 0. 0. 0. 0.],0.0,-0.001953125,0.001953125,[0. 0. 0. 0. 0. 0. 0. 0. 0.],-1.9140625,-0.3046875,9.58203125,[0. 0. 0. 0. 0. 0. 0. 0. 0.]
1742663962340323231,1742663962,323357804,imu_link,-0.015625,0.09832763671875,-0.0013427734375,0.99505615234375,[0. 0. 0. 0. 0. 0. 0. 0. 0.],0.0,-0.001953125,0.001953125,[0. 0. 0. 0. 0. 0. 0. 0. 0.],-1.9140625,-0.3046875,9.58203125,[0. 0. 0. 0. 0. 0. 0. 0. 0.]
1742663962346671655,1742663962,343294544,imu_link,-0.015625,0.09832763671875,-0.0013427734375,0.99505615234375,[0. 0. 0. 0. 0. 0. 0. 0. 0.],0.0,-0.001953125,0.001953125,[0. 0. 0. 0. 0. 0. 0. 0. 0.],-1.9140625,-0.3046875,9.58203125,[0. 0. 0. 0. 0. 0. 0. 0. 0.]
1742663962385527925,1742663962,363299136,imu_link,-0.015625,0.098388671875,-0.00128173828125,0.9949951171875,[0. 0. 0. 0. 0. 0. 0. 0. 0.],-0.001953125,0.001953125,0.0,[0. 0. 0. 0. 0. 0. 0. 0. 0.],-1.9140625,-0.3046875,9.58203125,[0. 0. 0. 0. 0. 0. 0. 0. 0.]
1742663962389898579,1742663962,388160718,imu_link,-0.015625,0.098388671875,-0.00128173828125,0.9949951171875,[0. 0. 0. 0. 0. 0. 0. 0. 0.],-0.001953125,0.001953125,0.0,[0. 0. 0. 0. 0. 0. 0. 0. 0.],-1.9140625,-0.3046875,9.58203125,[0. 0. 0. 0. 0. 0. 0. 0. 0.]
1742663962415043218,1742663962,403360302,imu_link,-0.015625,0.098388671875,-0.00128173828125,0.9949951171875,[0. 0. 0. 0. 0. 0. 0. 0. 0.],0.0,0.0,-0.001953125,[0. 0. 0. 0. 0. 0. 0. 0. 0.],-1.9140625,-0.3046875,9.58203125,[0. 0. 0. 0. 0. 0. 0. 0. 0.]
1742663962437637750,1742663962,423384542,imu_link,-0.015625,0.098388671875,-0.00128173828125,0.9949951171875,[0. 0. 0. 0. 0. 0. 0. 0. 0.],0.0,0.0,-0.001953125,[0. 0. 0. 0. 0. 0. 0. 0. 0.],-1.9140625,-0.3046875,9.58203125,[0. 0. 0. 0. 0. 0. 0. 0. 0.]
1742663962446764986,1742663962,443383411,imu_link,-0.015625,0.098388671875,-0.00128173828125,0.9949951171875,[0. 0. 0. 0. 0. 0. 0. 0. 0.],0.0,0.0,-0.001953125,[0. 0. 0. 0. 0. 0. 0. 0. 0.],-1.9140625,-0.3046875,9.58203125,[0. 0. 0. 0. 0. 0. 0. 0. 0.]
1742663962483982339,1742663962,463353948,imu_link,-0.015625,0.098388671875,-0.00128173828125,0.9949951171875,[0. 0. 0. 0. 0. 0. 0. 0. 0.],-0.001953125,0.001953125,-0.001953125,[0. 0. 0. 0. 0. 0. 0. 0. 0.],-1.9140625,-0.3046875,9.58203125,[0. 0. 0. 0. 0. 0. 0. 0. 0.]
1742663962493359187,1742663962,486538242,imu_link,-0.015625,0.098388671875,-0.00128173828125,0.9949951171875,[0. 0. 0. 0. 0. 0. 0. 0. 0.],-0.001953125,0.001953125,-0.001953125,[0. 0. 0. 0. 0. 0. 0. 0. 0.],-1.9140625,-0.3046875,9.58203125,[0. 0. 0. 0. 0. 0. 0. 0. 0.]
1742663962510330244,1742663962,503284372,imu_link,-0.015625,0.098388671875,-0.00128173828125,0.9949951171875,[0. 0. 0. 0. 0. 0. 0. 0. 0.],0.001953125,0.0,0.0,[0. 0. 0. 0. 0. 0. 0. 0. 0.],-1.9140625,-0.3046875,9.58203125,[0. 0. 0. 0. 0. 0. 0. 0. 0.]
1742663962537319356,1742663962,523402520,imu_link,-0.015625,0.098388671875,-0.00128173828125,0.9949951171875,[0. 0. 0. 0. 0. 0. 0. 0. 0.],0.001953125,0.0,0.0,[0. 0. 0. 0. 0. 0. 0. 0. 0.],-1.9140625,-0.3046875,9.58203125,[0. 0. 0. 0. 0. 0. 0. 0. 0.]
1742663962546815390,1742663962,543283148,imu_link,-0.015625,0.098388671875,-0.00128173828125,0.9949951171875,[0. 0. 0. 0. 0. 0. 0. 0. 0.],0.001953125,0.0,0.0,[0. 0. 0. 0. 0. 0. 0. 0. 0.],-1.9140625,-0.3046875,9.58203125,[0. 0. 0. 0. 0. 0. 0. 0. 0.]
1742663962580604280,1742663962,563351425,imu_link,-0.015625,0.098388671875,-0.0013427734375,0.9949951171875,[0. 0. 0. 0. 0. 0. 0. 0. 0.],0.0,0.001953125,0.0,[0. 0. 0. 0. 0. 0. 0. 0. 0.],-1.9140625,-0.3046875,9.58203125,[0. 0. 0. 0. 0. 0. 0. 0. 0.]
1742663962589977813,1742663962,588204729,imu_link,-0.015625,0.098388671875,-0.0013427734375,0.9949951171875,[0. 0. 0. 0. 0. 0. 0. 0. 0.],0.0,0.001953125,0.0,[0. 0. 0. 0. 0. 0. 0. 0. 0.],-1.9140625,-0.3046875,9.58203125,[0. 0. 0. 0. 0. 0. 0. 0. 0.]
1742663962610353537,1742663962,603822241,imu_link,-0.015625,0.098388671875,-0.0013427734375,0.9949951171875,[0. 0. 0. 0. 0. 0. 0. 0. 0.],-0.001953125,0.0,-0.001953125,[0. 0. 0. 0. 0. 0. 0. 0. 0.],-1.9140625,-0.3046875,9.58203125,[0. 0. 0. 0. 0. 0. 0. 0. 0.]
1742663962637296167,1742663962,623955815,imu_link,-0.01568603515625,0.098388671875,-0.0013427734375,0.9949951171875,[0. 0. 0. 0. 0. 0. 0. 0. 0.],-0.001953125,0.0,-0.001953125,[0. 0. 0. 0. 0. 0. 0. 0. 0.],-1.9140625,-0.3046875,9.58203125,[0. 0. 0. 0. 0. 0. 0. 0. 0.]
1742663962649403271,1742663962,643313496,imu_link,-0.01568603515625,0.098388671875,-0.0013427734375,0.9949951171875,[0. 0. 0. 0. 0. 0. 0. 0. 0.],-0.001953125,0.0,-0.001953125,[0. 0. 0. 0. 0. 0. 0. 0. 0.],-1.9140625,-0.3046875,9.58203125,[0. 0. 0. 0. 0. 0. 0. 0. 0.]
1742663962666752089,1742663962,663314311,imu_link,-0.01568603515625,0.098388671875,-0.0013427734375,0.9949951171875,[0. 0. 0. 0. 0. 0. 0. 0. 0.],0.00390625,0.0,0.001953125,[0. 0. 0. 0. 0. 0. 0. 0. 0.],-1.9140625,-0.3046875,9.58203125,[0. 0. 0. 0. 0. 0. 0. 0. 0.]
1742663962697353406,1742663962,683385773,imu_link,-0.01568603515625,0.098388671875,-0.0013427734375,0.9949951171875,[0. 0. 0. 0. 0. 0. 0. 0. 0.],0.00390625,0.0,0.001953125,[0. 0. 0. 0. 0. 0. 0. 0. 0.],-1.9140625,-0.3046875,9.58203125,[0. 0. 0. 0. 0. 0. 0. 0. 0.]
1742663962714612612,1742663962,703296865,imu_link,-0.01568603515625,0.098388671875,-0.0013427734375,0.9949951171875,[0. 0. 0. 0. 0. 0. 0. 0. 0.],0.0,0.001953125,0.001953125,[0. 0. 0. 0. 0. 0. 0. 0. 0.],-1.9140625,-0.3046875,9.58203125,[0. 0. 0. 0. 0. 0. 0. 0. 0.]
1742663962736497677,1742663962,723391994,imu_link,-0.01568603515625,0.098388671875,-0.0013427734375,0.9949951171875,[0. 0. 0. 0. 0. 0. 0. 0. 0.],0.0,0.001953125,0.001953125,[0. 0. 0. 0. 0. 0. 0. 0. 0.],-1.9140625,-0.3046875,9.58203125,[0. 0. 0. 0. 0. 0. 0. 0. 0.]
1742663962754114201,1742663962,743333993,imu_link,-0.01568603515625,0.098388671875,-0.0013427734375,0.9949951171875,[0. 0. 0. 0. 0. 0. 0. 0. 0.],0.0,0.001953125,0.001953125,[0. 0. 0. 0. 0. 0. 0. 0. 0.],-1.9140625,-0.3046875,9.54296875,[0. 0. 0. 0. 0. 0. 0. 0. 0.]
1742663962766838104,1742663962,763379974,imu_link,-0.01568603515625,0.098388671875,-0.0013427734375,0.9949951171875,[0. 0. 0. 0. 0. 0. 0. 0. 0.],-0.001953125,0.0,0.0,[0. 0. 0. 0. 0. 0. 0. 0. 0.],-1.9140625,-0.3046875,9.54296875,[0. 0. 0. 0. 0. 0. 0. 0. 0.]
1742663962797532255,1742663962,783380140,imu_link,-0.01568603515625,0.098388671875,-0.0013427734375,0.9949951171875,[0. 0. 0. 0. 0. 0. 0. 0. 0.],-0.001953125,0.0,0.0,[0. 0. 0. 0. 0. 0. 0. 0. 0.],-1.9140625,-0.3046875,9.58203125,[0. 0. 0. 0. 0. 0. 0. 0. 0.]
1742663962814620257,1742663962,803289787,imu_link,-0.01568603515625,0.098388671875,-0.0013427734375,0.9949951171875,[0. 0. 0. 0. 0. 0. 0. 0. 0.],0.001953125,0.0,0.0,[0. 0. 0. 0. 0. 0. 0. 0. 0.],-1.9140625,-0.3046875,9.58203125,[0. 0. 0. 0. 0. 0. 0. 0. 0.]
1742663962839527505,1742663962,823398065,imu_link,-0.015625,0.098388671875,-0.0013427734375,0.9949951171875,[0. 0. 0. 0. 0. 0. 0. 0. 0.],0.001953125,0.0,0.0,[0. 0. 0. 0. 0. 0. 0. 0. 0.],-1.9140625,-0.3046875,9.58203125,[0. 0. 0. 0. 0. 0. 0. 0. 0.]
1742663962846702915,1742663962,843287989,imu_link,-0.015625,0.098388671875,-0.0013427734375,0.9949951171875,[0. 0. 0. 0. 0. 0. 0. 0. 0.],0.001953125,0.0,0.0,[0. 0. 0. 0. 0. 0. 0. 0. 0.],-1.9140625,-0.3046875,9.58203125,[0. 0. 0. 0. 0. 0. 0. 0. 0.]
1742663962883059505,1742663962,863399693,imu_link,-0.015625,0.098388671875,-0.0013427734375,0.9949951171875,[0. 0. 0. 0. 0. 0. 0. 0. 0.],-0.001953125,0.001953125,0.0,[0. 0. 0. 0. 0. 0. 0. 0. 0.],-1.9140625,-0.3046875,9.58203125,[0. 0. 0. 0. 0. 0. 0. 0. 0.]
1742663962887780327,1742663962,885659482,imu_link,-0.015625,0.098388671875,-0.0013427734375,0.9949951171875,[0. 0. 0. 0. 0. 0. 0. 0. 0.],-0.001953125,0.001953125,0.0,[0. 0. 0. 0. 0. 0. 0. 0. 0.],-1.9140625,-0.3046875,9.58203125,[0. 0. 0. 0. 0. 0. 0. 0. 0.]
1742663962915287109,1742663962,903395784,imu_link,-0.015625,0.098388671875,-0.0013427734375,0.9949951171875,[0. 0. 0. 0. 0. 0. 0. 0. 0.],-0.00390625,-0.001953125,-0.001953125,[0. 0. 0. 0. 0. 0. 0. 0. 0.],-1.87890625,-0.3046875,9.578125,[0. 0. 0. 0. 0. 0. 0. 0. 0.]
1742663962939903208,1742663962,923353913,imu_link,-0.015625,0.098388671875,-0.0013427734375,0.99505615234375,[0. 0. 0. 0. 0. 0. 0. 0. 0.],-0.00390625,-0.001953125,-0.001953125,[0. 0. 0. 0. 0. 0. 0. 0. 0.],-1.9140625,-0.3046875,9.58203125,[0. 0. 0. 0. 0. 0. 0. 0. 0.]
1742663962946763394,1742663962,943344782,imu_link,-0.015625,0.098388671875,-0.0013427734375,0.99505615234375,[0. 0. 0. 0. 0. 0. 0. 0. 0.],-0.00390625,-0.001953125,-0.001953125,[0. 0. 0. 0. 0. 0. 0. 0. 0.],-1.9140625,-0.3046875,9.58203125,[0. 0. 0. 0. 0. 0. 0. 0. 0.]
1742663962984176878,1742663962,963399263,imu_link,-0.015625,0.098388671875,-0.00128173828125,0.9949951171875,[0. 0. 0. 0. 0. 0. 0. 0. 0.],0.0,0.001953125,0.00390625,[0. 0. 0. 0. 0. 0. 0. 0. 0.],-1.9140625,-0.3046875,9.58203125,[0. 0. 0. 0. 0. 0. 0. 0. 0.]
1742663962988413809,1742663962,986720910,imu_link,-0.015625,0.098388671875,-0.00128173828125,0.9949951171875,[0. 0. 0. 0. 0. 0. 0. 0. 0.],0.0,0.001953125,0.00390625,[0. 0. 0. 0. 0. 0. 0. 0. 0.],-1.9140625,-0.3046875,9.58203125,[0. 0. 0. 0. 0. 0. 0. 0. 0.]
1742663963015674959,1742663963,3805023,imu_link,-0.015625,0.098388671875,-0.00128173828125,0.9949951171875,[0. 0. 0. 0. 0. 0. 0. 0. 0.],0.0,0.0,0.0,[0. 0. 0. 0. 0. 0. 0. 0. 0.],-1.9140625,-0.3046875,9.58203125,[0. 0. 0. 0. 0. 0. 0. 0. 0.]
1742663963036557704,1742663963,23302335,imu_link,-0.015625,0.098388671875,-0.00128173828125,0.99505615234375,[0. 0. 0. 0. 0. 0. 0. 0. 0.],0.0,0.0,0.0,[0. 0. 0. 0. 0. 0. 0. 0. 0.],-1.9140625,-0.3046875,9.58203125,[0. 0. 0. 0. 0. 0. 0. 0. 0.]
1742663963046809335,1742663963,43345112,imu_link,-0.015625,0.098388671875,-0.00128173828125,0.99505615234375,[0. 0. 0. 0. 0. 0. 0. 0. 0.],0.0,0.0,0.0,[0. 0. 0. 0. 0. 0. 0. 0. 0.],-1.9140625,-0.3046875,9.58203125,[0. 0. 0. 0. 0. 0. 0. 0. 0.]
1742663963083060961,1742663963,63397297,imu_link,-0.01556396484375,0.09832763671875,-0.00128173828125,0.99505615234375,[0. 0. 0. 0. 0. 0. 0. 0. 0.],-0.00390625,-0.001953125,0.0,[0. 0. 0. 0. 0. 0. 0. 0. 0.],-1.9140625,-0.3046875,9.58203125,[0. 0. 0. 0. 0. 0. 0. 0. 0.]
1742663963092940497,1742663963,85936977,imu_link,-0.01556396484375,0.09832763671875,-0.00128173828125,0.99505615234375,[0. 0. 0. 0. 0. 0. 0. 0. 0.],-0.00390625,-0.001953125,0.0,[0. 0. 0. 0. 0. 0. 0. 0. 0.],-1.9140625,-0.3046875,9.58203125,[0. 0. 0. 0. 0. 0. 0. 0. 0.]
1742663963110565001,1742663963,103954872,imu_link,-0.01556396484375,0.09832763671875,-0.00128173828125,0.99505615234375,[0. 0. 0. 0. 0. 0. 0. 0. 0.],0.0,0.0,0.0,[0. 0. 0. 0. 0. 0. 0. 0. 0.],-1.9140625,-0.3046875,9.58203125,[0. 0. 0. 0. 0. 0. 0. 0. 0.]
1742663963136634979,1742663963,123390109,imu_link,-0.01556396484375,0.09832763671875,-0.00128173828125,0.99505615234375,[0. 0. 0. 0. 0. 0. 0. 0. 0.],0.0,0.0,0.0,[0. 0. 0. 0. 0. 0. 0. 0. 0.],-1.9140625,-0.3046875,9.58203125,[0. 0. 0. 0. 0. 0. 0. 0. 0.]
1742663963146734294,1742663963,143351386,imu_link,-0.01556396484375,0.09832763671875,-0.00128173828125,0.99505615234375,[0. 0. 0. 0. 0. 0. 0. 0. 0.],0.0,0.0,0.0,[0. 0. 0. 0. 0. 0. 0. 0. 0.],-1.9140625,-0.3046875,9.58203125,[0. 0. 0. 0. 0. 0. 0. 0. 0.]
1742663963180332590,1742663963,163993204,imu_link,-0.01556396484375,0.09832763671875,-0.00128173828125,0.99505615234375,[0. 0. 0. 0. 0. 0. 0. 0. 0.],0.0,0.0,0.0,[0. 0. 0. 0. 0. 0. 0. 0. 0.],-1.9140625,-0.3046875,9.58203125,[0. 0. 0. 0. 0. 0. 0. 0. 0.]
1742663963188845470,1742663963,186987942,imu_link,-0.01556396484375,0.09832763671875,-0.00128173828125,0.99505615234375,[0. 0. 0. 0. 0. 0. 0. 0. 0.],0.0,0.0,0.0,[0. 0. 0. 0. 0. 0. 0. 0. 0.],-1.9140625,-0.3046875,9.58203125,[0. 0. 0. 0. 0. 0. 0. 0. 0.]
1742663963209794753,1742663963,203306569,imu_link,-0.01556396484375,0.09832763671875,-0.00128173828125,0.99505615234375,[0. 0. 0. 0. 0. 0. 0. 0. 0.],0.0,0.0,0.0,[0. 0. 0. 0. 0. 0. 0. 0. 0.],-1.9140625,-0.3046875,9.58203125,[0. 0. 0. 0. 0. 0. 0. 0. 0.]
1742663963236485048,1742663963,223803793,imu_link,-0.01556396484375,0.09832763671875,-0.00128173828125,0.99505615234375,[0. 0. 0. 0. 0. 0. 0. 0. 0.],0.0,0.0,0.0,[0. 0. 0. 0. 0. 0. 0. 0. 0.],-1.9140625,-0.3046875,9.58203125,[0. 0. 0. 0. 0. 0. 0. 0. 0.]
1742663963253677810,1742663963,243354549,imu_link,-0.01556396484375,0.09832763671875,-0.00128173828125,0.99505615234375,[0. 0. 0. 0. 0. 0. 0. 0. 0.],0.0,0.0,0.0,[0. 0. 0. 0. 0. 0. 0. 0. 0.],-1.9140625,-0.3046875,9.58203125,[0. 0. 0. 0. 0. 0. 0. 0. 0.]
1742663963266222971,1742663963,263402493,imu_link,-0.01556396484375,0.09832763671875,-0.00128173828125,0.99505615234375,[0. 0. 0. 0. 0. 0. 0. 0. 0.],0.0,0.0,0.0,[0. 0. 0. 0. 0. 0. 0. 0. 0.],-1.9140625,-0.3046875,9.58203125,[0. 0. 0. 0. 0. 0. 0. 0. 0.]
1742663963296885252,1742663963,283365510,imu_link,-0.01556396484375,0.09832763671875,-0.00128173828125,0.99505615234375,[0. 0. 0. 0. 0. 0. 0. 0. 0.],0.0,0.0,0.0,[0. 0. 0. 0. 0. 0. 0. 0. 0.],-1.9140625,-0.3046875,9.58203125,[0. 0. 0. 0. 0. 0. 0. 0. 0.]
1742663963315463132,1742663963,304037162,imu_link,-0.01556396484375,0.09832763671875,-0.00128173828125,0.99505615234375,[0. 0. 0. 0. 0. 0. 0. 0. 0.],0.0,0.0,0.0,[0. 0. 0. 0. 0. 0. 0. 0. 0.],-1.9140625,-0.3046875,9.58203125,[0. 0. 0. 0. 0. 0. 0. 0. 0.]
1742663963336370414,1742663963,323329787,imu_link,-0.01556396484375,0.09832763671875,-0.00128173828125,0.99505615234375,[0. 0. 0. 0. 0. 0. 0. 0. 0.],0.0,0.0,0.0,[0. 0. 0. 0. 0. 0. 0. 0. 0.],-1.9140625,-0.3046875,9.58203125,[0. 0. 0. 0. 0. 0. 0. 0. 0.]
1742663963353966048,1742663963,343313267,imu_link,-0.01556396484375,0.09832763671875,-0.00128173828125,0.99505615234375,[0. 0. 0. 0. 0. 0. 0. 0. 0.],0.0,0.0,0.0,[0. 0. 0. 0. 0. 0. 0. 0. 0.],-1.9140625,-0.3046875,9.58203125,[0. 0. 0. 0. 0. 0. 0. 0. 0.]
1742663963366571340,1742663963,363392378,imu_link,-0.01556396484375,0.09832763671875,-0.00128173828125,0.99505615234375,[0. 0. 0. 0. 0. 0. 0. 0. 0.],0.0,0.0,0.0,[0. 0. 0. 0. 0. 0. 0. 0. 0.],-1.9140625,-0.3046875,9.58203125,[0. 0. 0. 0. 0. 0. 0. 0. 0.]
1742663963397134009,1742663963,383336284,imu_link,-0.01556396484375,0.09832763671875,-0.00128173828125,0.99505615234375,[0. 0. 0. 0. 0. 0. 0. 0. 0.],0.0,0.0,0.0,[0. 0. 0. 0. 0. 0. 0. 0. 0.],-1.9140625,-0.3046875,9.58203125,[0. 0. 0. 0. 0. 0. 0. 0. 0.]
1742663963410018080,1742663963,403401914,imu_link,-0.01556396484375,0.09832763671875,-0.00128173828125,0.99505615234375,[0. 0. 0. 0. 0. 0. 0. 0. 0.],0.0,0.0,0.0,[0. 0. 0. 0. 0. 0. 0. 0. 0.],-1.9140625,-0.3046875,9.58203125,[0. 0. 0. 0. 0. 0. 0. 0. 0.]
1742663963438832331,1742663963,423358709,imu_link,-0.01556396484375,0.098388671875,-0.00128173828125,0.99505615234375,[0. 0. 0. 0. 0. 0. 0. 0. 0.],0.0,0.0,0.0,[0. 0. 0. 0. 0. 0. 0. 0. 0.],-1.9140625,-0.3046875,9.58203125,[0. 0. 0. 0. 0. 0. 0. 0. 0.]
1742663963446166890,1742663963,443347653,imu_link,-0.01556396484375,0.098388671875,-0.00128173828125,0.99505615234375,[0. 0. 0. 0. 0. 0. 0. 0. 0.],0.0,0.0,0.0,[0. 0. 0. 0. 0. 0. 0. 0. 0.],-1.9140625,-0.3046875,9.58203125,[0. 0. 0. 0. 0. 0. 0. 0. 0.]
1742663963483494170,1742663963,463396930,imu_link,-0.01556396484375,0.098388671875,-0.00128173828125,0.99505615234375,[0. 0. 0. 0. 0. 0. 0. 0. 0.],0.0,0.0,0.0,[0. 0. 0. 0. 0. 0. 0. 0. 0.],-1.9140625,-0.3046875,9.58203125,[0. 0. 0. 0. 0. 0. 0. 0. 0.]
1742663963487866565,1742663963,486142167,imu_link,-0.01556396484375,0.098388671875,-0.00128173828125,0.99505615234375,[0. 0. 0. 0. 0. 0. 0. 0. 0.],0.0,0.0,0.0,[0. 0. 0. 0. 0. 0. 0. 0. 0.],-1.9140625,-0.3046875,9.58203125,[0. 0. 0. 0. 0. 0. 0. 0. 0.]
1742663963514135302,1742663963,503311632,imu_link,-0.01556396484375,0.098388671875,-0.00128173828125,0.99505615234375,[0. 0. 0. 0. 0. 0. 0. 0. 0.],0.0,0.0,0.0,[0. 0. 0. 0. 0. 0. 0. 0. 0.],-1.9140625,-0.3046875,9.58203125,[0. 0. 0. 0. 0. 0. 0. 0. 0.]
1742663963540935395,1742663963,523982968,imu_link,-0.01556396484375,0.098388671875,-0.00128173828125,0.99505615234375,[0. 0. 0. 0. 0. 0. 0. 0. 0.],0.0,0.0,0.0,[0. 0. 0. 0. 0. 0. 0. 0. 0.],-1.9140625,-0.3046875,9.58203125,[0. 0. 0. 0. 0. 0. 0. 0. 0.]
1742663963546385203,1742663963,543522094,imu_link,-0.01556396484375,0.098388671875,-0.00128173828125,0.99505615234375,[0. 0. 0. 0. 0. 0. 0. 0. 0.],0.0,0.0,0.0,[0. 0. 0. 0. 0. 0. 0. 0. 0.],-1.9140625,-0.3046875,9.58203125,[0. 0. 0. 0. 0. 0. 0. 0. 0.]
1742663963580338501,1742663963,563401815,imu_link,-0.01556396484375,0.098388671875,-0.00128173828125,0.99505615234375,[0. 0. 0. 0. 0. 0. 0. 0. 0.],0.0,0.0,0.0,[0. 0. 0. 0. 0. 0. 0. 0. 0.],-1.9140625,-0.3046875,9.58203125,[0. 0. 0. 0. 0. 0. 0. 0. 0.]
1742663963586191274,1742663963,583374925,imu_link,-0.01556396484375,0.098388671875,-0.00128173828125,0.99505615234375,[0. 0. 0. 0. 0. 0. 0. 0. 0.],0.0,0.0,0.0,[0. 0. 0. 0. 0. 0. 0. 0. 0.],-1.9140625,-0.3046875,9.58203125,[0. 0. 0. 0. 0. 0. 0. 0. 0.]
1742663963614958155,1742663963,603327184,imu_link,-0.01556396484375,0.098388671875,-0.00128173828125,0.99505615234375,[0. 0. 0. 0. 0. 0. 0. 0. 0.],0.0,0.0,0.0,[0. 0. 0. 0. 0. 0. 0. 0. 0.],-1.9140625,-0.3046875,9.58203125,[0. 0. 0. 0. 0. 0. 0. 0. 0.]
1742663963636034234,1742663963,623327183,imu_link,-0.01556396484375,0.098388671875,-0.00128173828125,0.99505615234375,[0. 0. 0. 0. 0. 0. 0. 0. 0.],0.0,0.0,0.0,[0. 0. 0. 0. 0. 0. 0. 0. 0.],-1.9140625,-0.3046875,9.58203125,[0. 0. 0. 0. 0. 0. 0. 0. 0.]
1742663963646087642,1742663963,643308830,imu_link,-0.01556396484375,0.098388671875,-0.00128173828125,0.99505615234375,[0. 0. 0. 0. 0. 0. 0. 0. 0.],0.0,0.0,0.0,[0. 0. 0. 0. 0. 0. 0. 0. 0.],-1.9140625,-0.3046875,9.58203125,[0. 0. 0. 0. 0. 0. 0. 0. 0.]
1742663963678981601,1742663963,663396052,imu_link,-0.01556396484375,0.098388671875,-0.00128173828125,0.99505615234375,[0. 0. 0. 0. 0. 0. 0. 0. 0.],0.0,0.0,0.0,[0. 0. 0. 0. 0. 0. 0. 0. 0.],-1.9140625,-0.3046875,9.58203125,[0. 0. 0. 0. 0. 0. 0. 0. 0.]
1742663963686040881,1742663963,683297458,imu_link,-0.01556396484375,0.098388671875,-0.00128173828125,0.99505615234375,[0. 0. 0. 0. 0. 0. 0. 0. 0.],0.0,0.0,0.0,[0. 0. 0. 0. 0. 0. 0. 0. 0.],-1.9140625,-0.3046875,9.58203125,[0. 0. 0. 0. 0. 0. 0. 0. 0.]
1742663963714120073,1742663963,703394847,imu_link,-0.01556396484375,0.098388671875,-0.00128173828125,0.99505615234375,[0. 0. 0. 0. 0. 0. 0. 0. 0.],0.0,0.0,0.0,[0. 0. 0. 0. 0. 0. 0. 0. 0.],-1.9140625,-0.3046875,9.58203125,[0. 0. 0. 0. 0. 0. 0. 0. 0.]
1742663963736044046,1742663963,723340513,imu_link,-0.01556396484375,0.098388671875,-0.00128173828125,0.9949951171875,[0. 0. 0. 0. 0. 0. 0. 0. 0.],0.0,0.0,0.0,[0. 0. 0. 0. 0. 0. 0. 0. 0.],-1.9140625,-0.3046875,9.58203125,[0. 0. 0. 0. 0. 0. 0. 0. 0.]
1742663963745468635,1742663963,743326715,imu_link,-0.01556396484375,0.098388671875,-0.00128173828125,0.9949951171875,[0. 0. 0. 0. 0. 0. 0. 0. 0.],0.0,0.0,0.0,[0. 0. 0. 0. 0. 0. 0. 0. 0.],-1.9140625,-0.3046875,9.58203125,[0. 0. 0. 0. 0. 0. 0. 0. 0.]
1742663963780346272,1742663963,763410511,imu_link,-0.01556396484375,0.098388671875,-0.00128173828125,0.9949951171875,[0. 0. 0. 0. 0. 0. 0. 0. 0.],0.0,0.0,0.0,[0. 0. 0. 0. 0. 0. 0. 0. 0.],-1.9140625,-0.3046875,9.58203125,[0. 0. 0. 0. 0. 0. 0. 0. 0.]
1742663963788673317,1742663963,786284675,imu_link,-0.01556396484375,0.098388671875,-0.00128173828125,0.9949951171875,[0. 0. 0. 0. 0. 0. 0. 0. 0.],0.0,0.0,0.0,[0. 0. 0. 0. 0. 0. 0. 0. 0.],-1.9140625,-0.3046875,9.58203125,[0. 0. 0. 0. 0. 0. 0. 0. 0.]
1742663963809188431,1742663963,803401251,imu_link,-0.01556396484375,0.098388671875,-0.00128173828125,0.9949951171875,[0. 0. 0. 0. 0. 0. 0. 0. 0.],0.0,0.0,0.0,[0. 0. 0. 0. 0. 0. 0. 0. 0.],-1.9140625,-0.3046875,9.58203125,[0. 0. 0. 0. 0. 0. 0. 0. 0.]
1742663963835963430,1742663963,823309990,imu_link,-0.01556396484375,0.098388671875,-0.00128173828125,0.9949951171875,[0. 0. 0. 0. 0. 0. 0. 0. 0.],0.0,0.0,0.0,[0. 0. 0. 0. 0. 0. 0. 0. 0.],-1.9140625,-0.3046875,9.58203125,[0. 0. 0. 0. 0. 0. 0. 0. 0.]
1742663963854784071,1742663963,843302823,imu_link,-0.01556396484375,0.098388671875,-0.00128173828125,0.9949951171875,[0. 0. 0. 0. 0. 0. 0. 0. 0.],0.0,0.0,0.0,[0. 0. 0. 0. 0. 0. 0. 0. 0.],-1.9140625,-0.3046875,9.58203125,[0. 0. 0. 0. 0. 0. 0. 0. 0.]
1742663963865971503,1742663963,863298100,imu_link,-0.01556396484375,0.098388671875,-0.00128173828125,0.9949951171875,[0. 0. 0. 0. 0. 0. 0. 0. 0.],0.0,0.0,0.0,[0. 0. 0. 0. 0. 0. 0. 0. 0.],-1.9140625,-0.3046875,9.58203125,[0. 0. 0. 0. 0. 0. 0. 0. 0.]
1742663963888992167,1742663963,883299377,imu_link,-0.01556396484375,0.098388671875,-0.00128173828125,0.9949951171875,[0. 0. 0. 0. 0. 0. 0. 0. 0.],0.0,0.0,0.0,[0. 0. 0. 0. 0. 0. 0. 0. 0.],-1.9140625,-0.3046875,9.58203125,[0. 0. 0. 0. 0. 0. 0. 0. 0.]
1742663963914963477,1742663963,903554396,imu_link,-0.01556396484375,0.098388671875,-0.00128173828125,0.9949951171875,[0. 0. 0. 0. 0. 0. 0. 0. 0.],0.0,0.0,0.0,[0. 0. 0. 0. 0. 0. 0. 0. 0.],-1.9140625,-0.3046875,9.58203125,[0. 0. 0. 0. 0. 0. 0. 0. 0.]
1742663963935135163,1742663963,923301727,imu_link,-0.01556396484375,0.098388671875,-0.00128173828125,0.9949951171875,[0. 0. 0. 0. 0. 0. 0. 0. 0.],0.0,0.0,0.0,[0. 0. 0. 0. 0. 0. 0. 0. 0.],-1.9140625,-0.3046875,9.58203125,[0. 0. 0. 0. 0. 0. 0. 0. 0.]
1742663963954728345,1742663963,943360153,imu_link,-0.01556396484375,0.098388671875,-0.00128173828125,0.9949951171875,[0. 0. 0. 0. 0. 0. 0. 0. 0.],0.0,0.0,0.0,[0. 0. 0. 0. 0. 0. 0. 0. 0.],-1.9140625,-0.3046875,9.58203125,[0. 0. 0. 0. 0. 0. 0. 0. 0.]
1742663963965489608,1742663963,963293226,imu_link,-0.01556396484375,0.098388671875,-0.00128173828125,0.9949951171875,[0. 0. 0. 0. 0. 0. 0. 0. 0.],0.0,0.0,0.0,[0. 0. 0. 0. 0. 0. 0. 0. 0.],-1.9140625,-0.3046875,9.58203125,[0. 0. 0. 0. 0. 0. 0. 0. 0.]
1742663963996830429,1742663963,983385336,imu_link,-0.01556396484375,0.098388671875,-0.00128173828125,0.9949951171875,[0. 0. 0. 0. 0. 0. 0. 0. 0.],0.0,0.0,0.0,[0. 0. 0. 0. 0. 0. 0. 0. 0.],-1.9140625,-0.3046875,9.58203125,[0. 0. 0. 0. 0. 0. 0. 0. 0.]
1742663964009671056,1742663964,6566057,imu_link,-0.01556396484375,0.098388671875,-0.00128173828125,0.9949951171875,[0. 0. 0. 0. 0. 0. 0. 0. 0.],0.0,0.0,0.0,[0. 0. 0. 0. 0. 0. 0. 0. 0.],-1.9140625,-0.3046875,9.58203125,[0. 0. 0. 0. 0. 0. 0. 0. 0.]
1742663964039905759,1742663964,23315946,imu_link,-0.01556396484375,0.098388671875,-0.00128173828125,0.9949951171875,[0. 0. 0. 0. 0. 0. 0. 0. 0.],0.0,0.0,0.0,[0. 0. 0. 0. 0. 0. 0. 0. 0.],-1.9140625,-0.3046875,9.58203125,[0. 0. 0. 0. 0. 0. 0. 0. 0.]
1742663964045489661,1742663964,43274000,imu_link,-0.01556396484375,0.098388671875,-0.00128173828125,0.9949951171875,[0. 0. 0. 0. 0. 0. 0. 0. 0.],0.0,0.0,0.0,[0. 0. 0. 0. 0. 0. 0. 0. 0.],-1.9140625,-0.3046875,9.58203125,[0. 0. 0. 0. 0. 0. 0. 0. 0.]
1742663964065552827,1742663964,63327315,imu_link,-0.01556396484375,0.098388671875,-0.00128173828125,0.9949951171875,[0. 0. 0. 0. 0. 0. 0. 0. 0.],0.0,0.0,0.0,[0. 0. 0. 0. 0. 0. 0. 0. 0.],-1.9140625,-0.3046875,9.58203125,[0. 0. 0. 0. 0. 0. 0. 0. 0.]
1742663964085669104,1742663964,83652130,imu_link,-0.01556396484375,0.098388671875,-0.00128173828125,0.9949951171875,[0. 0. 0. 0. 0. 0. 0. 0. 0.],0.0,0.0,0.0,[0. 0. 0. 0. 0. 0. 0. 0. 0.],-1.9140625,-0.3046875,9.58203125,[0. 0. 0. 0. 0. 0. 0. 0. 0.]
1742663964114713598,1742663964,103394776,imu_link,-0.01556396484375,0.098388671875,-0.00128173828125,0.9949951171875,[0. 0. 0. 0. 0. 0. 0. 0. 0.],0.0,0.0,0.0,[0. 0. 0. 0. 0. 0. 0. 0. 0.],-1.9140625,-0.3046875,9.58203125,[0. 0. 0. 0. 0. 0. 0. 0. 0.]
1742663964140270165,1742663964,123369220,imu_link,-0.01556396484375,0.098388671875,-0.00128173828125,0.9949951171875,[0. 0. 0. 0. 0. 0. 0. 0. 0.],0.0,0.0,0.0,[0. 0. 0. 0. 0. 0. 0. 0. 0.],-1.9140625,-0.3046875,9.58203125,[0. 0. 0. 0. 0. 0. 0. 0. 0.]
1742663964145387656,1742663964,143291459,imu_link,-0.01556396484375,0.098388671875,-0.00128173828125,0.9949951171875,[0. 0. 0. 0. 0. 0. 0. 0. 0.],0.0,0.0,0.0,[0. 0. 0. 0. 0. 0. 0. 0. 0.],-1.9140625,-0.3046875,9.58203125,[0. 0. 0. 0. 0. 0. 0. 0. 0.]
1742663964180668425,1742663964,163396996,imu_link,-0.01556396484375,0.098388671875,-0.00128173828125,0.9949951171875,[0. 0. 0. 0. 0. 0. 0. 0. 0.],0.0,0.0,0.0,[0. 0. 0. 0. 0. 0. 0. 0. 0.],-1.9140625,-0.3046875,9.58203125,[0. 0. 0. 0. 0. 0. 0. 0. 0.]
1742663964185299950,1742663964,183240754,imu_link,-0.01556396484375,0.098388671875,-0.00128173828125,0.9949951171875,[0. 0. 0. 0. 0. 0. 0. 0. 0.],0.0,0.0,0.0,[0. 0. 0. 0. 0. 0. 0. 0. 0.],-1.9140625,-0.3046875,9.58203125,[0. 0. 0. 0. 0. 0. 0. 0. 0.]
1742663964214464482,1742663964,203397754,imu_link,-0.01556396484375,0.098388671875,-0.00128173828125,0.9949951171875,[0. 0. 0. 0. 0. 0. 0. 0. 0.],0.0,0.0,0.0,[0. 0. 0. 0. 0. 0. 0. 0. 0.],-1.9140625,-0.3046875,9.58203125,[0. 0. 0. 0. 0. 0. 0. 0. 0.]
1742663964236414992,1742663964,223356883,imu_link,-0.01556396484375,0.098388671875,-0.00128173828125,0.9949951171875,[0. 0. 0. 0. 0. 0. 0. 0. 0.],0.0,0.0,0.0,[0. 0. 0. 0. 0. 0. 0. 0. 0.],-1.9140625,-0.3046875,9.58203125,[0. 0. 0. 0. 0. 0. 0. 0. 0.]
1742663964245213003,1742663964,243306511,imu_link,-0.01556396484375,0.098388671875,-0.00128173828125,0.9949951171875,[0. 0. 0. 0. 0. 0. 0. 0. 0.],0.0,0.0,0.0,[0. 0. 0. 0. 0. 0. 0. 0. 0.],-1.9140625,-0.3046875,9.58203125,[0. 0. 0. 0. 0. 0. 0. 0. 0.]
1742663964280708625,1742663964,263417678,imu_link,-0.01556396484375,0.098388671875,-0.00128173828125,0.9949951171875,[0. 0. 0. 0. 0. 0. 0. 0. 0.],0.0,0.0,0.0,[0. 0. 0. 0. 0. 0. 0. 0. 0.],-1.9140625,-0.3046875,9.58203125,[0. 0. 0. 0. 0. 0. 0. 0. 0.]
1742663964285062575,1742663964,283282158,imu_link,-0.01556396484375,0.098388671875,-0.00128173828125,0.9949951171875,[0. 0. 0. 0. 0. 0. 0. 0. 0.],0.0,0.0,0.0,[0. 0. 0. 0. 0. 0. 0. 0. 0.],-1.9140625,-0.3046875,9.58203125,[0. 0. 0. 0. 0. 0. 0. 0. 0.]
1742663964314997851,1742663964,303956550,imu_link,-0.01556396484375,0.098388671875,-0.00128173828125,0.9949951171875,[0. 0. 0. 0. 0. 0. 0. 0. 0.],0.0,0.0,0.0,[0. 0. 0. 0. 0. 0. 0. 0. 0.],-1.9140625,-0.3046875,9.54296875,[0. 0. 0. 0. 0. 0. 0. 0. 0.]
1742663964336590507,1742663964,323992067,imu_link,-0.01556396484375,0.098388671875,-0.00128173828125,0.9949951171875,[0. 0. 0. 0. 0. 0. 0. 0. 0.],0.0,0.0,0.0,[0. 0. 0. 0. 0. 0. 0. 0. 0.],-1.9140625,-0.3046875,9.58203125,[0. 0. 0. 0. 0. 0. 0. 0. 0.]
1742663964345724947,1742663964,344005808,imu_link,-0.01556396484375,0.098388671875,-0.00128173828125,0.9949951171875,[0. 0. 0. 0. 0. 0. 0. 0. 0.],0.0,0.0,0.0,[0. 0. 0. 0. 0. 0. 0. 0. 0.],-1.9140625,-0.3046875,9.58203125,[0. 0. 0. 0. 0. 0. 0. 0. 0.]
1742663964366014318,1742663964,363930195,imu_link,-0.01556396484375,0.098388671875,-0.00128173828125,0.9949951171875,[0. 0. 0. 0. 0. 0. 0. 0. 0.],0.0,0.0,0.0,[0. 0. 0. 0. 0. 0. 0. 0. 0.],-1.9140625,-0.3046875,9.58203125,[0. 0. 0. 0. 0. 0. 0. 0. 0.]
1742663964390681454,1742663964,383754805,imu_link,-0.01556396484375,0.098388671875,-0.00128173828125,0.9949951171875,[0. 0. 0. 0. 0. 0. 0. 0. 0.],0.0,0.0,0.0,[0. 0. 0. 0. 0. 0. 0. 0. 0.],-1.9140625,-0.3046875,9.58203125,[0. 0. 0. 0. 0. 0. 0. 0. 0.]
1742663964410704009,1742663964,403549877,imu_link,-0.01556396484375,0.098388671875,-0.00128173828125,0.9949951171875,[0. 0. 0. 0. 0. 0. 0. 0. 0.],0.0,0.0,0.0,[0. 0. 0. 0. 0. 0. 0. 0. 0.],-1.9140625,-0.3046875,9.58203125,[0. 0. 0. 0. 0. 0. 0. 0. 0.]
1742663964435092588,1742663964,423313930,imu_link,-0.01556396484375,0.09844970703125,-0.00128173828125,0.9949951171875,[0. 0. 0. 0. 0. 0. 0. 0. 0.],0.0,0.0,0.0,[0. 0. 0. 0. 0. 0. 0. 0. 0.],-1.9140625,-0.3046875,9.58203125,[0. 0. 0. 0. 0. 0. 0. 0. 0.]
1742663964453905192,1742663964,443375319,imu_link,-0.01556396484375,0.09844970703125,-0.00128173828125,0.9949951171875,[0. 0. 0. 0. 0. 0. 0. 0. 0.],0.0,0.0,0.0,[0. 0. 0. 0. 0. 0. 0. 0. 0.],-1.9140625,-0.3046875,9.58203125,[0. 0. 0. 0. 0. 0. 0. 0. 0.]
1742663964465060809,1742663964,463307836,imu_link,-0.01556396484375,0.09844970703125,-0.00128173828125,0.9949951171875,[0. 0. 0. 0. 0. 0. 0. 0. 0.],0.0,0.0,0.0,[0. 0. 0. 0. 0. 0. 0. 0. 0.],-1.9140625,-0.3046875,9.58203125,[0. 0. 0. 0. 0. 0. 0. 0. 0.]
1742663964500486189,1742663964,483392910,imu_link,-0.01556396484375,0.09844970703125,-0.00128173828125,0.9949951171875,[0. 0. 0. 0. 0. 0. 0. 0. 0.],0.0,0.0,0.0,[0. 0. 0. 0. 0. 0. 0. 0. 0.],-1.9140625,-0.3046875,9.58203125,[0. 0. 0. 0. 0. 0. 0. 0. 0.]
1742663964505155956,1742663964,503356779,imu_link,-0.01556396484375,0.09844970703125,-0.00128173828125,0.9949951171875,[0. 0. 0. 0. 0. 0. 0. 0. 0.],0.0,0.0,0.0,[0. 0. 0. 0. 0. 0. 0. 0. 0.],-1.9140625,-0.3046875,9.58203125,[0. 0. 0. 0. 0. 0. 0. 0. 0.]
1742663964536085867,1742663964,523368056,imu_link,-0.01556396484375,0.09844970703125,-0.00128173828125,0.9949951171875,[0. 0. 0. 0. 0. 0. 0. 0. 0.],0.0,0.0,0.0,[0. 0. 0. 0. 0. 0. 0. 0. 0.],-1.9140625,-0.3046875,9.58203125,[0. 0. 0. 0. 0. 0. 0. 0. 0.]
1742663964554256449,1742663964,543290981,imu_link,-0.01556396484375,0.09844970703125,-0.00128173828125,0.9949951171875,[0. 0. 0. 0. 0. 0. 0. 0. 0.],0.0,0.0,0.0,[0. 0. 0. 0. 0. 0. 0. 0. 0.],-1.9140625,-0.3046875,9.58203125,[0. 0. 0. 0. 0. 0. 0. 0. 0.]
1742663964565080305,1742663964,563313684,imu_link,-0.01556396484375,0.09844970703125,-0.00128173828125,0.9949951171875,[0. 0. 0. 0. 0. 0. 0. 0. 0.],0.0,0.0,0.0,[0. 0. 0. 0. 0. 0. 0. 0. 0.],-1.9140625,-0.3046875,9.58203125,[0. 0. 0. 0. 0. 0. 0. 0. 0.]
1742663964585209027,1742663964,583389517,imu_link,-0.01556396484375,0.09844970703125,-0.00128173828125,0.9949951171875,[0. 0. 0. 0. 0. 0. 0. 0. 0.],0.0,0.0,0.0,[0. 0. 0. 0. 0. 0. 0. 0. 0.],-1.9140625,-0.3046875,9.58203125,[0. 0. 0. 0. 0. 0. 0. 0. 0.]
1742663964614170613,1742663964,603398016,imu_link,-0.01556396484375,0.09844970703125,-0.00128173828125,0.9949951171875,[0. 0. 0. 0. 0. 0. 0. 0. 0.],0.0,0.0,0.0,[0. 0. 0. 0. 0. 0. 0. 0. 0.],-1.9140625,-0.3046875,9.58203125,[0. 0. 0. 0. 0. 0. 0. 0. 0.]
1742663964639930644,1742663964,623361552,imu_link,-0.01556396484375,0.09844970703125,-0.00128173828125,0.9949951171875,[0. 0. 0. 0. 0. 0. 0. 0. 0.],0.0,0.0,0.0,[0. 0. 0. 0. 0. 0. 0. 0. 0.],-1.9140625,-0.3046875,9.58203125,[0. 0. 0. 0. 0. 0. 0. 0. 0.]
1742663964644988005,1742663964,643282107,imu_link,-0.01556396484375,0.09844970703125,-0.00128173828125,0.9949951171875,[0. 0. 0. 0. 0. 0. 0. 0. 0.],0.0,0.0,0.0,[0. 0. 0. 0. 0. 0. 0. 0. 0.],-1.9140625,-0.3046875,9.58203125,[0. 0. 0. 0. 0. 0. 0. 0. 0.]
1742663964665202117,1742663964,663382662,imu_link,-0.01556396484375,0.09844970703125,-0.00128173828125,0.9949951171875,[0. 0. 0. 0. 0. 0. 0. 0. 0.],0.0,0.0,0.0,[0. 0. 0. 0. 0. 0. 0. 0. 0.],-1.9140625,-0.3046875,9.58203125,[0. 0. 0. 0. 0. 0. 0. 0. 0.]
1742663964685052819,1742663964,683291624,imu_link,-0.01556396484375,0.09844970703125,-0.00128173828125,0.9949951171875,[0. 0. 0. 0. 0. 0. 0. 0. 0.],0.0,0.0,0.0,[0. 0. 0. 0. 0. 0. 0. 0. 0.],-1.9140625,-0.3046875,9.58203125,[0. 0. 0. 0. 0. 0. 0. 0. 0.]
1742663964713963997,1742663964,703397753,imu_link,-0.01556396484375,0.09844970703125,-0.00128173828125,0.9949951171875,[0. 0. 0. 0. 0. 0. 0. 0. 0.],0.0,0.0,0.0,[0. 0. 0. 0. 0. 0. 0. 0. 0.],-1.9140625,-0.3046875,9.58203125,[0. 0. 0. 0. 0. 0. 0. 0. 0.]
1742663964738851986,1742663964,723477234,imu_link,-0.01556396484375,0.09844970703125,-0.00128173828125,0.9949951171875,[0. 0. 0. 0. 0. 0. 0. 0. 0.],0.0,0.0,0.0,[0. 0. 0. 0. 0. 0. 0. 0. 0.],-1.9140625,-0.3046875,9.58203125,[0. 0. 0. 0. 0. 0. 0. 0. 0.]
1742663964744982835,1742663964,743283788,imu_link,-0.01556396484375,0.09844970703125,-0.00128173828125,0.9949951171875,[0. 0. 0. 0. 0. 0. 0. 0. 0.],0.0,0.0,0.0,[0. 0. 0. 0. 0. 0. 0. 0. 0.],-1.9140625,-0.3046875,9.58203125,[0. 0. 0. 0. 0. 0. 0. 0. 0.]
1742663964778343389,1742663964,763347473,imu_link,-0.01556396484375,0.09844970703125,-0.00128173828125,0.9949951171875,[0. 0. 0. 0. 0. 0. 0. 0. 0.],0.0,0.0,0.0,[0. 0. 0. 0. 0. 0. 0. 0. 0.],-1.9140625,-0.3046875,9.58203125,[0. 0. 0. 0. 0. 0. 0. 0. 0.]
1742663964784999111,1742663964,783295453,imu_link,-0.01556396484375,0.09844970703125,-0.00128173828125,0.9949951171875,[0. 0. 0. 0. 0. 0. 0. 0. 0.],0.0,0.0,0.0,[0. 0. 0. 0. 0. 0. 0. 0. 0.],-1.9140625,-0.3046875,9.58203125,[0. 0. 0. 0. 0. 0. 0. 0. 0.]
1742663964813932233,1742663964,803397749,imu_link,-0.01556396484375,0.09844970703125,-0.00128173828125,0.9949951171875,[0. 0. 0. 0. 0. 0. 0. 0. 0.],0.0,0.0,0.0,[0. 0. 0. 0. 0. 0. 0. 0. 0.],-1.9140625,-0.3046875,9.58203125,[0. 0. 0. 0. 0. 0. 0. 0. 0.]
1742663964835076350,1742663964,823340100,imu_link,-0.01556396484375,0.09844970703125,-0.00128173828125,0.9949951171875,[0. 0. 0. 0. 0. 0. 0. 0. 0.],0.0,0.0,0.0,[0. 0. 0. 0. 0. 0. 0. 0. 0.],-1.9140625,-0.3046875,9.58203125,[0. 0. 0. 0. 0. 0. 0. 0. 0.]
1742663964845173535,1742663964,843398322,imu_link,-0.01556396484375,0.09844970703125,-0.00128173828125,0.9949951171875,[0. 0. 0. 0. 0. 0. 0. 0. 0.],0.0,0.0,0.0,[0. 0. 0. 0. 0. 0. 0. 0. 0.],-1.9140625,-0.3046875,9.58203125,[0. 0. 0. 0. 0. 0. 0. 0. 0.]
1742663964880092950,1742663964,863315136,imu_link,-0.01556396484375,0.09844970703125,-0.00128173828125,0.9949951171875,[0. 0. 0. 0. 0. 0. 0. 0. 0.],0.0,0.0,0.0,[0. 0. 0. 0. 0. 0. 0. 0. 0.],-1.9140625,-0.3046875,9.58203125,[0. 0. 0. 0. 0. 0. 0. 0. 0.]
1742663964885022940,1742663964,883285486,imu_link,-0.01556396484375,0.09844970703125,-0.00128173828125,0.9949951171875,[0. 0. 0. 0. 0. 0. 0. 0. 0.],0.0,0.0,0.0,[0. 0. 0. 0. 0. 0. 0. 0. 0.],-1.9140625,-0.3046875,9.58203125,[0. 0. 0. 0. 0. 0. 0. 0. 0.]
1742663964910992047,1742663964,904232065,imu_link,-0.01556396484375,0.09844970703125,-0.00128173828125,0.9949951171875,[0. 0. 0. 0. 0. 0. 0. 0. 0.],0.0,0.0,0.0,[0. 0. 0. 0. 0. 0. 0. 0. 0.],-1.9140625,-0.3046875,9.58203125,[0. 0. 0. 0. 0. 0. 0. 0. 0.]
1742663964936781356,1742663964,923699265,imu_link,-0.01556396484375,0.09844970703125,-0.00128173828125,0.9949951171875,[0. 0. 0. 0. 0. 0. 0. 0. 0.],0.0,0.0,0.0,[0. 0. 0. 0. 0. 0. 0. 0. 0.],-1.9140625,-0.3046875,9.58203125,[0. 0. 0. 0. 0. 0. 0. 0. 0.]
1742663964948829718,1742663964,943386503,imu_link,-0.01556396484375,0.09844970703125,-0.00128173828125,0.9949951171875,[0. 0. 0. 0. 0. 0. 0. 0. 0.],0.0,0.0,0.0,[0. 0. 0. 0. 0. 0. 0. 0. 0.],-1.9140625,-0.3046875,9.58203125,[0. 0. 0. 0. 0. 0. 0. 0. 0.]
1742663964965351661,1742663964,963292872,imu_link,-0.01556396484375,0.09844970703125,-0.00128173828125,0.9949951171875,[0. 0. 0. 0. 0. 0. 0. 0. 0.],0.0,0.0,0.0,[0. 0. 0. 0. 0. 0. 0. 0. 0.],-1.9140625,-0.3046875,9.58203125,[0. 0. 0. 0. 0. 0. 0. 0. 0.]
1742663964990326318,1742663964,983328724,imu_link,-0.01556396484375,0.09844970703125,-0.00128173828125,0.9949951171875,[0. 0. 0. 0. 0. 0. 0. 0. 0.],0.0,0.0,0.0,[0. 0. 0. 0. 0. 0. 0. 0. 0.],-1.9140625,-0.3046875,9.58203125,[0. 0. 0. 0. 0. 0. 0. 0. 0.]
1742663965010035389,1742663965,3312297,imu_link,-0.01556396484375,0.09844970703125,-0.00128173828125,0.9949951171875,[0. 0. 0. 0. 0. 0. 0. 0. 0.],0.0,0.0,0.0,[0. 0. 0. 0. 0. 0. 0. 0. 0.],-1.9140625,-0.3046875,9.58203125,[0. 0. 0. 0. 0. 0. 0. 0. 0.]
1742663965034877304,1742663965,23314481,imu_link,-0.01556396484375,0.09844970703125,-0.00128173828125,0.9949951171875,[0. 0. 0. 0. 0. 0. 0. 0. 0.],0.0,0.0,0.0,[0. 0. 0. 0. 0. 0. 0. 0. 0.],-1.9140625,-0.3046875,9.58203125,[0. 0. 0. 0. 0. 0. 0. 0. 0.]
1742663965053801186,1742663965,43395610,imu_link,-0.01556396484375,0.09844970703125,-0.00128173828125,0.9949951171875,[0. 0. 0. 0. 0. 0. 0. 0. 0.],0.0,0.0,0.0,[0. 0. 0. 0. 0. 0. 0. 0. 0.],-1.9140625,-0.3046875,9.58203125,[0. 0. 0. 0. 0. 0. 0. 0. 0.]
1742663965074669913,1742663965,63304554,imu_link,-0.01556396484375,0.09844970703125,-0.00128173828125,0.9949951171875,[0. 0. 0. 0. 0. 0. 0. 0. 0.],0.0,0.0,0.0,[0. 0. 0. 0. 0. 0. 0. 0. 0.],-1.9140625,-0.3046875,9.58203125,[0. 0. 0. 0. 0. 0. 0. 0. 0.]
1742663965090001516,1742663965,83335571,imu_link,-0.01556396484375,0.09844970703125,-0.00128173828125,0.9949951171875,[0. 0. 0. 0. 0. 0. 0. 0. 0.],0.0,0.0,0.0,[0. 0. 0. 0. 0. 0. 0. 0. 0.],-1.9140625,-0.3046875,9.58203125,[0. 0. 0. 0. 0. 0. 0. 0. 0.]
1742663965113809147,1742663965,103312682,imu_link,-0.01556396484375,0.09844970703125,-0.00128173828125,0.9949951171875,[0. 0. 0. 0. 0. 0. 0. 0. 0.],0.0,0.0,0.0,[0. 0. 0. 0. 0. 0. 0. 0. 0.],-1.9140625,-0.3046875,9.58203125,[0. 0. 0. 0. 0. 0. 0. 0. 0.]
1742663965134754633,1742663965,123364811,imu_link,-0.01556396484375,0.09844970703125,-0.00128173828125,0.9949951171875,[0. 0. 0. 0. 0. 0. 0. 0. 0.],0.0,0.0,0.0,[0. 0. 0. 0. 0. 0. 0. 0. 0.],-1.9140625,-0.3046875,9.58203125,[0. 0. 0. 0. 0. 0. 0. 0. 0.]
1742663965153969683,1742663965,143396773,imu_link,-0.01556396484375,0.09844970703125,-0.00128173828125,0.9949951171875,[0. 0. 0. 0. 0. 0. 0. 0. 0.],0.0,0.0,0.0,[0. 0. 0. 0. 0. 0. 0. 0. 0.],-1.9140625,-0.3046875,9.58203125,[0. 0. 0. 0. 0. 0. 0. 0. 0.]
1742663965177034533,1742663965,163315513,imu_link,-0.01556396484375,0.09844970703125,-0.00128173828125,0.9949951171875,[0. 0. 0. 0. 0. 0. 0. 0. 0.],0.0,0.0,0.0,[0. 0. 0. 0. 0. 0. 0. 0. 0.],-1.9140625,-0.3046875,9.58203125,[0. 0. 0. 0. 0. 0. 0. 0. 0.]
1742663965185014873,1742663965,183299290,imu_link,-0.01556396484375,0.09844970703125,-0.00128173828125,0.9949951171875,[0. 0. 0. 0. 0. 0. 0. 0. 0.],0.0,0.0,0.0,[0. 0. 0. 0. 0. 0. 0. 0. 0.],-1.9140625,-0.3046875,9.58203125,[0. 0. 0. 0. 0. 0. 0. 0. 0.]
1742663965214336127,1742663965,203400141,imu_link,-0.01556396484375,0.09844970703125,-0.00128173828125,0.9949951171875,[0. 0. 0. 0. 0. 0. 0. 0. 0.],0.0,0.0,0.0,[0. 0. 0. 0. 0. 0. 0. 0. 0.],-1.9140625,-0.3046875,9.58203125,[0. 0. 0. 0. 0. 0. 0. 0. 0.]
1742663965229685249,1742663965,226277804,imu_link,-0.01556396484375,0.09844970703125,-0.00128173828125,0.9949951171875,[0. 0. 0. 0. 0. 0. 0. 0. 0.],0.0,0.0,0.0,[0. 0. 0. 0. 0. 0. 0. 0. 0.],-1.9140625,-0.3046875,9.58203125,[0. 0. 0. 0. 0. 0. 0. 0. 0.]
1742663965253233194,1742663965,243401954,imu_link,-0.01556396484375,0.09844970703125,-0.00128173828125,0.9949951171875,[0. 0. 0. 0. 0. 0. 0. 0. 0.],0.0,0.0,0.0,[0. 0. 0. 0. 0. 0. 0. 0. 0.],-1.9140625,-0.3046875,9.58203125,[0. 0. 0. 0. 0. 0. 0. 0. 0.]
1742663965276429044,1742663965,263334268,imu_link,-0.01556396484375,0.09844970703125,-0.00128173828125,0.9949951171875,[0. 0. 0. 0. 0. 0. 0. 0. 0.],0.0,0.0,0.0,[0. 0. 0. 0. 0. 0. 0. 0. 0.],-1.9140625,-0.3046875,9.58203125,[0. 0. 0. 0. 0. 0. 0. 0. 0.]
1742663965285058666,1742663965,283295971,imu_link,-0.01556396484375,0.09844970703125,-0.00128173828125,0.9949951171875,[0. 0. 0. 0. 0. 0. 0. 0. 0.],0.0,0.0,0.0,[0. 0. 0. 0. 0. 0. 0. 0. 0.],-1.9140625,-0.3046875,9.58203125,[0. 0. 0. 0. 0. 0. 0. 0. 0.]
1742663965313295747,1742663965,303406026,imu_link,-0.01556396484375,0.09844970703125,-0.00128173828125,0.9949951171875,[0. 0. 0. 0. 0. 0. 0. 0. 0.],0.0,0.0,0.0,[0. 0. 0. 0. 0. 0. 0. 0. 0.],-1.9140625,-0.3046875,9.58203125,[0. 0. 0. 0. 0. 0. 0. 0. 0.]
1742663965327935291,1742663965,325091405,imu_link,-0.01556396484375,0.09844970703125,-0.00128173828125,0.9949951171875,[0. 0. 0. 0. 0. 0. 0. 0. 0.],0.0,0.0,0.0,[0. 0. 0. 0. 0. 0. 0. 0. 0.],-1.9140625,-0.3046875,9.58203125,[0. 0. 0. 0. 0. 0. 0. 0. 0.]
1742663965350970548,1742663965,343466062,imu_link,-0.01556396484375,0.09844970703125,-0.00128173828125,0.9949951171875,[0. 0. 0. 0. 0. 0. 0. 0. 0.],0.0,0.0,0.0,[0. 0. 0. 0. 0. 0. 0. 0. 0.],-1.9140625,-0.3046875,9.58203125,[0. 0. 0. 0. 0. 0. 0. 0. 0.]
1742663965377093210,1742663965,363347505,imu_link,-0.01556396484375,0.09844970703125,-0.00128173828125,0.9949951171875,[0. 0. 0. 0. 0. 0. 0. 0. 0.],0.0,0.0,0.0,[0. 0. 0. 0. 0. 0. 0. 0. 0.],-1.9140625,-0.3046875,9.58203125,[0. 0. 0. 0. 0. 0. 0. 0. 0.]
1742663965385834925,1742663965,383362467,imu_link,-0.01556396484375,0.09844970703125,-0.00128173828125,0.9949951171875,[0. 0. 0. 0. 0. 0. 0. 0. 0.],0.0,0.0,0.0,[0. 0. 0. 0. 0. 0. 0. 0. 0.],-1.9140625,-0.3046875,9.58203125,[0. 0. 0. 0. 0. 0. 0. 0. 0.]
1742663965423948154,1742663965,403625042,imu_link,-0.01556396484375,0.09844970703125,-0.00128173828125,0.9949951171875,[0. 0. 0. 0. 0. 0. 0. 0. 0.],0.0,0.0,0.0,[0. 0. 0. 0. 0. 0. 0. 0. 0.],-1.9140625,-0.3046875,9.58203125,[0. 0. 0. 0. 0. 0. 0. 0. 0.]
1742663965432768943,1742663965,430748228,imu_link,-0.01556396484375,0.09844970703125,-0.00128173828125,0.9949951171875,[0. 0. 0. 0. 0. 0. 0. 0. 0.],0.0,0.0,0.0,[0. 0. 0. 0. 0. 0. 0. 0. 0.],-1.9140625,-0.3046875,9.58203125,[0. 0. 0. 0. 0. 0. 0. 0. 0.]
1742663965450932525,1742663965,443440484,imu_link,-0.01556396484375,0.09844970703125,-0.00128173828125,0.9949951171875,[0. 0. 0. 0. 0. 0. 0. 0. 0.],0.0,0.0,0.0,[0. 0. 0. 0. 0. 0. 0. 0. 0.],-1.9140625,-0.3046875,9.58203125,[0. 0. 0. 0. 0. 0. 0. 0. 0.]
1742663965475919366,1742663965,463380686,imu_link,-0.01556396484375,0.09844970703125,-0.00128173828125,0.9949951171875,[0. 0. 0. 0. 0. 0. 0. 0. 0.],0.0,0.0,0.0,[0. 0. 0. 0. 0. 0. 0. 0. 0.],-1.9140625,-0.3046875,9.58203125,[0. 0. 0. 0. 0. 0. 0. 0. 0.]
1742663965485204788,1742663965,483348204,imu_link,-0.01556396484375,0.09844970703125,-0.00128173828125,0.9949951171875,[0. 0. 0. 0. 0. 0. 0. 0. 0.],0.0,0.0,0.0,[0. 0. 0. 0. 0. 0. 0. 0. 0.],-1.9140625,-0.3046875,9.58203125,[0. 0. 0. 0. 0. 0. 0. 0. 0.]
1742663965510929763,1742663965,503373536,imu_link,-0.01556396484375,0.09844970703125,-0.00128173828125,0.9949951171875,[0. 0. 0. 0. 0. 0. 0. 0. 0.],0.0,0.0,0.0,[0. 0. 0. 0. 0. 0. 0. 0. 0.],-1.9140625,-0.3046875,9.58203125,[0. 0. 0. 0. 0. 0. 0. 0. 0.]
1742663965538477026,1742663965,523454147,imu_link,-0.01556396484375,0.09844970703125,-0.00128173828125,0.9949951171875,[0. 0. 0. 0. 0. 0. 0. 0. 0.],0.0,0.0,0.0,[0. 0. 0. 0. 0. 0. 0. 0. 0.],-1.9140625,-0.3046875,9.58203125,[0. 0. 0. 0. 0. 0. 0. 0. 0.]
1742663965554071742,1742663965,543368146,imu_link,-0.01556396484375,0.09844970703125,-0.00128173828125,0.9949951171875,[0. 0. 0. 0. 0. 0. 0. 0. 0.],0.0,0.0,0.0,[0. 0. 0. 0. 0. 0. 0. 0. 0.],-1.9140625,-0.3046875,9.58203125,[0. 0. 0. 0. 0. 0. 0. 0. 0.]
1742663965575493138,1742663965,563391979,imu_link,-0.01556396484375,0.09844970703125,-0.00128173828125,0.9949951171875,[0. 0. 0. 0. 0. 0. 0. 0. 0.],0.0,0.0,0.0,[0. 0. 0. 0. 0. 0. 0. 0. 0.],-1.9140625,-0.3046875,9.58203125,[0. 0. 0. 0. 0. 0. 0. 0. 0.]
1742663965591731098,1742663965,583497515,imu_link,-0.01556396484375,0.09844970703125,-0.00128173828125,0.9949951171875,[0. 0. 0. 0. 0. 0. 0. 0. 0.],0.0,0.0,0.0,[0. 0. 0. 0. 0. 0. 0. 0. 0.],-1.9140625,-0.3046875,9.58203125,[0. 0. 0. 0. 0. 0. 0. 0. 0.]
1742663965611512707,1742663965,603382810,imu_link,-0.01556396484375,0.09844970703125,-0.00128173828125,0.9949951171875,[0. 0. 0. 0. 0. 0. 0. 0. 0.],0.0,0.0,0.0,[0. 0. 0. 0. 0. 0. 0. 0. 0.],-1.9140625,-0.3046875,9.58203125,[0. 0. 0. 0. 0. 0. 0. 0. 0.]
1742663965638625338,1742663965,623444180,imu_link,-0.01556396484375,0.09844970703125,-0.00128173828125,0.9949951171875,[0. 0. 0. 0. 0. 0. 0. 0. 0.],0.0,0.0,0.0,[0. 0. 0. 0. 0. 0. 0. 0. 0.],-1.9140625,-0.3046875,9.58203125,[0. 0. 0. 0. 0. 0. 0. 0. 0.]
1742663965654114757,1742663965,643356216,imu_link,-0.01556396484375,0.09844970703125,-0.00128173828125,0.9949951171875,[0. 0. 0. 0. 0. 0. 0. 0. 0.],0.0,0.0,0.0,[0. 0. 0. 0. 0. 0. 0. 0. 0.],-1.9140625,-0.3046875,9.58203125,[0. 0. 0. 0. 0. 0. 0. 0. 0.]
1742663965675493338,1742663965,663360474,imu_link,-0.01556396484375,0.09844970703125,-0.00128173828125,0.9949951171875,[0. 0. 0. 0. 0. 0. 0. 0. 0.],0.0,0.0,0.0,[0. 0. 0. 0. 0. 0. 0. 0. 0.],-1.9140625,-0.3046875,9.58203125,[0. 0. 0. 0. 0. 0. 0. 0. 0.]
1742663965687029531,1742663965,683362492,imu_link,-0.01556396484375,0.09844970703125,-0.00128173828125,0.9949951171875,[0. 0. 0. 0. 0. 0. 0. 0. 0.],0.0,0.0,0.0,[0. 0. 0. 0. 0. 0. 0. 0. 0.],-1.9140625,-0.3046875,9.58203125,[0. 0. 0. 0. 0. 0. 0. 0. 0.]
1742663965723217953,1742663965,703423140,imu_link,-0.01556396484375,0.09844970703125,-0.00128173828125,0.9949951171875,[0. 0. 0. 0. 0. 0. 0. 0. 0.],0.0,0.0,0.0,[0. 0. 0. 0. 0. 0. 0. 0. 0.],-1.9140625,-0.3046875,9.58203125,[0. 0. 0. 0. 0. 0. 0. 0. 0.]
1742663965729402394,1742663965,725887745,imu_link,-0.01556396484375,0.09844970703125,-0.00128173828125,0.9949951171875,[0. 0. 0. 0. 0. 0. 0. 0. 0.],0.0,0.0,0.0,[0. 0. 0. 0. 0. 0. 0. 0. 0.],-1.9140625,-0.3046875,9.58203125,[0. 0. 0. 0. 0. 0. 0. 0. 0.]
1742663965755456056,1742663965,743429157,imu_link,-0.01556396484375,0.09844970703125,-0.00128173828125,0.9949951171875,[0. 0. 0. 0. 0. 0. 0. 0. 0.],0.0,0.0,0.0,[0. 0. 0. 0. 0. 0. 0. 0. 0.],-1.9140625,-0.3046875,9.58203125,[0. 0. 0. 0. 0. 0. 0. 0. 0.]
1742663965780434342,1742663965,763391989,imu_link,-0.01556396484375,0.09844970703125,-0.00128173828125,0.9949951171875,[0. 0. 0. 0. 0. 0. 0. 0. 0.],0.0,0.0,0.0,[0. 0. 0. 0. 0. 0. 0. 0. 0.],-1.87890625,-0.3046875,9.578125,[0. 0. 0. 0. 0. 0. 0. 0. 0.]
1742663965787718105,1742663965,784220160,imu_link,-0.01556396484375,0.09844970703125,-0.00128173828125,0.9949951171875,[0. 0. 0. 0. 0. 0. 0. 0. 0.],0.0,0.0,0.0,[0. 0. 0. 0. 0. 0. 0. 0. 0.],-1.87890625,-0.3046875,9.578125,[0. 0. 0. 0. 0. 0. 0. 0. 0.]
1742663965826116946,1742663965,804243566,imu_link,-0.01556396484375,0.09844970703125,-0.00128173828125,0.9949951171875,[0. 0. 0. 0. 0. 0. 0. 0. 0.],0.0,0.0,0.0,[0. 0. 0. 0. 0. 0. 0. 0. 0.],-1.9140625,-0.3046875,9.58203125,[0. 0. 0. 0. 0. 0. 0. 0. 0.]
1742663965831891126,1742663965,828874147,imu_link,-0.01556396484375,0.09844970703125,-0.00128173828125,0.9949951171875,[0. 0. 0. 0. 0. 0. 0. 0. 0.],0.0,0.0,0.0,[0. 0. 0. 0. 0. 0. 0. 0. 0.],-1.9140625,-0.3046875,9.58203125,[0. 0. 0. 0. 0. 0. 0. 0. 0.]
1742663965855145884,1742663965,843405227,imu_link,-0.01556396484375,0.09844970703125,-0.00128173828125,0.9949951171875,[0. 0. 0. 0. 0. 0. 0. 0. 0.],0.0,0.0,0.0,[0. 0. 0. 0. 0. 0. 0. 0. 0.],-1.9140625,-0.3046875,9.58203125,[0. 0. 0. 0. 0. 0. 0. 0. 0.]
1742663965877623693,1742663965,863320318,imu_link,-0.01556396484375,0.09844970703125,-0.00128173828125,0.9949951171875,[0. 0. 0. 0. 0. 0. 0. 0. 0.],0.0,0.0,0.0,[0. 0. 0. 0. 0. 0. 0. 0. 0.],-1.9140625,-0.3046875,9.58203125,[0. 0. 0. 0. 0. 0. 0. 0. 0.]
1742663965888090214,1742663965,884279434,imu_link,-0.01556396484375,0.09844970703125,-0.00128173828125,0.9949951171875,[0. 0. 0. 0. 0. 0. 0. 0. 0.],0.0,0.0,0.0,[0. 0. 0. 0. 0. 0. 0. 0. 0.],-1.9140625,-0.3046875,9.58203125,[0. 0. 0. 0. 0. 0. 0. 0. 0.]
1742663965925569847,1742663965,904478119,imu_link,-0.01556396484375,0.09844970703125,-0.00128173828125,0.9949951171875,[0. 0. 0. 0. 0. 0. 0. 0. 0.],0.0,0.0,0.0,[0. 0. 0. 0. 0. 0. 0. 0. 0.],-1.9140625,-0.3046875,9.58203125,[0. 0. 0. 0. 0. 0. 0. 0. 0.]
1742663965936515407,1742663965,933488261,imu_link,-0.01556396484375,0.09844970703125,-0.00128173828125,0.9949951171875,[0. 0. 0. 0. 0. 0. 0. 0. 0.],0.0,0.0,0.0,[0. 0. 0. 0. 0. 0. 0. 0. 0.],-1.9140625,-0.3046875,9.58203125,[0. 0. 0. 0. 0. 0. 0. 0. 0.]
1742663965951294766,1742663965,943437130,imu_link,-0.01556396484375,0.09844970703125,-0.00128173828125,0.9949951171875,[0. 0. 0. 0. 0. 0. 0. 0. 0.],0.0,0.0,0.0,[0. 0. 0. 0. 0. 0. 0. 0. 0.],-1.9140625,-0.3046875,9.58203125,[0. 0. 0. 0. 0. 0. 0. 0. 0.]
1742663965977847135,1742663965,963362592,imu_link,-0.01556396484375,0.09844970703125,-0.00128173828125,0.9949951171875,[0. 0. 0. 0. 0. 0. 0. 0. 0.],0.0,0.0,0.0,[0. 0. 0. 0. 0. 0. 0. 0. 0.],-1.9140625,-0.3046875,9.58203125,[0. 0. 0. 0. 0. 0. 0. 0. 0.]
1742663965986808240,1742663965,983389814,imu_link,-0.01556396484375,0.09844970703125,-0.00128173828125,0.9949951171875,[0. 0. 0. 0. 0. 0. 0. 0. 0.],0.0,0.0,0.0,[0. 0. 0. 0. 0. 0. 0. 0. 0.],-1.9140625,-0.3046875,9.58203125,[0. 0. 0. 0. 0. 0. 0. 0. 0.]
1742663966024255409,1742663966,3385905,imu_link,-0.01556396484375,0.09844970703125,-0.00128173828125,0.9949951171875,[0. 0. 0. 0. 0. 0. 0. 0. 0.],0.0,0.0,0.0,[0. 0. 0. 0. 0. 0. 0. 0. 0.],-1.87890625,-0.3046875,9.578125,[0. 0. 0. 0. 0. 0. 0. 0. 0.]
1742663966033398201,1742663966,31674784,imu_link,-0.01556396484375,0.09844970703125,-0.00128173828125,0.9949951171875,[0. 0. 0. 0. 0. 0. 0. 0. 0.],0.0,0.0,0.0,[0. 0. 0. 0. 0. 0. 0. 0. 0.],-1.80078125,-0.34375,9.578125,[0. 0. 0. 0. 0. 0. 0. 0. 0.]
1742663966051373985,1742663966,43441571,imu_link,-0.01556396484375,0.09844970703125,-0.00128173828125,0.9949951171875,[0. 0. 0. 0. 0. 0. 0. 0. 0.],0.00390625,-0.001953125,0.005859375,[0. 0. 0. 0. 0. 0. 0. 0. 0.],-1.80078125,-0.34375,9.578125,[0. 0. 0. 0. 0. 0. 0. 0. 0.]
1742663966078217374,1742663966,63347792,imu_link,-0.01544189453125,0.098388671875,-0.0010986328125,0.99505615234375,[0. 0. 0. 0. 0. 0. 0. 0. 0.],0.00390625,-0.001953125,0.005859375,[0. 0. 0. 0. 0. 0. 0. 0. 0.],-1.72265625,-0.3828125,9.54296875,[0. 0. 0. 0. 0. 0. 0. 0. 0.]
1742663966092062524,1742663966,84954411,imu_link,-0.01544189453125,0.098388671875,-0.0010986328125,0.99505615234375,[0. 0. 0. 0. 0. 0. 0. 0. 0.],0.00390625,-0.001953125,0.005859375,[0. 0. 0. 0. 0. 0. 0. 0. 0.],-1.72265625,-0.3828125,9.54296875,[0. 0. 0. 0. 0. 0. 0. 0. 0.]
1742663966107905426,1742663966,104478278,imu_link,-0.01544189453125,0.098388671875,-0.0010986328125,0.99505615234375,[0. 0. 0. 0. 0. 0. 0. 0. 0.],0.02734375,0.00390625,0.09375,[0. 0. 0. 0. 0. 0. 0. 0. 0.],-1.1875,-0.765625,9.578125,[0. 0. 0. 0. 0. 0. 0. 0. 0.]
1742663966139196451,1742663966,124499184,imu_link,-0.0147705078125,0.098388671875,0.00067138671875,0.99505615234375,[0. 0. 0. 0. 0. 0. 0. 0. 0.],0.02734375,0.00390625,0.09375,[0. 0. 0. 0. 0. 0. 0. 0. 0.],-0.91796875,-0.34375,9.73046875,[0. 0. 0. 0. 0. 0. 0. 0. 0.]
1742663966155886950,1742663966,144528165,imu_link,-0.0147705078125,0.098388671875,0.00067138671875,0.99505615234375,[0. 0. 0. 0. 0. 0. 0. 0. 0.],0.005859375,0.001953125,0.015625,[0. 0. 0. 0. 0. 0. 0. 0. 0.],-0.49609375,-0.26953125,9.609375,[0. 0. 0. 0. 0. 0. 0. 0. 0.]
1742663966176828066,1742663966,163348676,imu_link,-0.01470947265625,0.09814453125,0.00152587890625,0.99505615234375,[0. 0. 0. 0. 0. 0. 0. 0. 0.],0.005859375,0.001953125,0.015625,[0. 0. 0. 0. 0. 0. 0. 0. 0.],-0.49609375,-0.26953125,9.609375,[0. 0. 0. 0. 0. 0. 0. 0. 0.]
1742663966190759753,1742663966,183355916,imu_link,-0.01470947265625,0.09814453125,0.00152587890625,0.99505615234375,[0. 0. 0. 0. 0. 0. 0. 0. 0.],0.005859375,0.001953125,0.015625,[0. 0. 0. 0. 0. 0. 0. 0. 0.],-0.078125,-0.53515625,9.73046875,[0. 0. 0. 0. 0. 0. 0. 0. 0.]
1742663966210564177,1742663966,203352453,imu_link,-0.01470947265625,0.09814453125,0.00152587890625,0.99505615234375,[0. 0. 0. 0. 0. 0. 0. 0. 0.],-0.01171875,0.005859375,0.06640625,[0. 0. 0. 0. 0. 0. 0. 0. 0.],-0.078125,-0.53515625,9.73046875,[0. 0. 0. 0. 0. 0. 0. 0. 0.]
1742663966240112840,1742663966,223503601,imu_link,-0.014892578125,0.097900390625,0.00274658203125,0.99505615234375,[0. 0. 0. 0. 0. 0. 0. 0. 0.],-0.01171875,0.005859375,0.06640625,[0. 0. 0. 0. 0. 0. 0. 0. 0.],-0.4609375,-0.34375,9.6484375,[0. 0. 0. 0. 0. 0. 0. 0. 0.]
1742663966255458610,1742663966,244526809,imu_link,-0.014892578125,0.097900390625,0.00274658203125,0.99505615234375,[0. 0. 0. 0. 0. 0. 0. 0. 0.],-0.005859375,0.0078125,0.046875,[0. 0. 0. 0. 0. 0. 0. 0. 0.],-1.4921875,-0.0390625,9.61328125,[0. 0. 0. 0. 0. 0. 0. 0. 0.]
1742663966280629823,1742663966,263431358,imu_link,-0.01507568359375,0.09765625,0.00421142578125,0.9951171875,[0. 0. 0. 0. 0. 0. 0. 0. 0.],-0.005859375,0.0078125,0.046875,[0. 0. 0. 0. 0. 0. 0. 0. 0.],-1.4921875,-0.0390625,9.61328125,[0. 0. 0. 0. 0. 0. 0. 0. 0.]
1742663966287914900,1742663966,284475881,imu_link,-0.01507568359375,0.09765625,0.00421142578125,0.9951171875,[0. 0. 0. 0. 0. 0. 0. 0. 0.],-0.005859375,0.0078125,0.046875,[0. 0. 0. 0. 0. 0. 0. 0. 0.],-1.9140625,-0.11328125,9.578125,[0. 0. 0. 0. 0. 0. 0. 0. 0.]
1742663966324172452,1742663966,304403658,imu_link,-0.01556396484375,0.097412109375,0.00457763671875,0.9951171875,[0. 0. 0. 0. 0. 0. 0. 0. 0.],-0.017578125,0.005859375,0.009765625,[0. 0. 0. 0. 0. 0. 0. 0. 0.],-2.18359375,-0.11328125,9.578125,[0. 0. 0. 0. 0. 0. 0. 0. 0.]
1742663966330751414,1742663966,326768152,imu_link,-0.01556396484375,0.097412109375,0.00457763671875,0.9951171875,[0. 0. 0. 0. 0. 0. 0. 0. 0.],-0.017578125,0.005859375,0.009765625,[0. 0. 0. 0. 0. 0. 0. 0. 0.],-2.18359375,-0.11328125,9.578125,[0. 0. 0. 0. 0. 0. 0. 0. 0.]
1742663966356127665,1742663966,343450336,imu_link,-0.01556396484375,0.097412109375,0.00457763671875,0.9951171875,[0. 0. 0. 0. 0. 0. 0. 0. 0.],0.005859375,0.005859375,0.0234375,[0. 0. 0. 0. 0. 0. 0. 0. 0.],-2.14453125,-0.19140625,9.50390625,[0. 0. 0. 0. 0. 0. 0. 0. 0.]
1742663966381196248,1742663966,363327353,imu_link,-0.0157470703125,0.09698486328125,0.00506591796875,0.9951171875,[0. 0. 0. 0. 0. 0. 0. 0. 0.],0.005859375,0.005859375,0.0234375,[0. 0. 0. 0. 0. 0. 0. 0. 0.],-2.3359375,-0.078125,9.65234375,[0. 0. 0. 0. 0. 0. 0. 0. 0.]
1742663966387858063,1742663966,384450062,imu_link,-0.0157470703125,0.09698486328125,0.00506591796875,0.9951171875,[0. 0. 0. 0. 0. 0. 0. 0. 0.],0.005859375,0.005859375,0.0234375,[0. 0. 0. 0. 0. 0. 0. 0. 0.],-2.3359375,-0.078125,9.65234375,[0. 0. 0. 0. 0. 0. 0. 0. 0.]
1742663966424740655,1742663966,403726224,imu_link,-0.01605224609375,0.0965576171875,0.00482177734375,0.99517822265625,[0. 0. 0. 0. 0. 0. 0. 0. 0.],-0.001953125,0.001953125,-0.017578125,[0. 0. 0. 0. 0. 0. 0. 0. 0.],-2.4140625,-0.15234375,9.5390625,[0. 0. 0. 0. 0. 0. 0. 0. 0.]
1742663966430603132,1742663966,427427947,imu_link,-0.01605224609375,0.0965576171875,0.00482177734375,0.99517822265625,[0. 0. 0. 0. 0. 0. 0. 0. 0.],-0.001953125,0.001953125,-0.017578125,[0. 0. 0. 0. 0. 0. 0. 0. 0.],-2.4140625,-0.15234375,9.5390625,[0. 0. 0. 0. 0. 0. 0. 0. 0.]
1742663966455519213,1742663966,443451369,imu_link,-0.01605224609375,0.0965576171875,0.00482177734375,0.99517822265625,[0. 0. 0. 0. 0. 0. 0. 0. 0.],0.001953125,0.001953125,-0.005859375,[0. 0. 0. 0. 0. 0. 0. 0. 0.],-2.296875,-0.3046875,9.5390625,[0. 0. 0. 0. 0. 0. 0. 0. 0.]
1742663966477094573,1742663966,463323016,imu_link,-0.01629638671875,0.09619140625,0.0045166015625,0.9952392578125,[0. 0. 0. 0. 0. 0. 0. 0. 0.],0.001953125,0.001953125,-0.005859375,[0. 0. 0. 0. 0. 0. 0. 0. 0.],-2.296875,-0.34375,9.58203125,[0. 0. 0. 0. 0. 0. 0. 0. 0.]
1742663966486792293,1742663966,483340219,imu_link,-0.01629638671875,0.09619140625,0.0045166015625,0.9952392578125,[0. 0. 0. 0. 0. 0. 0. 0. 0.],0.001953125,0.001953125,-0.005859375,[0. 0. 0. 0. 0. 0. 0. 0. 0.],-2.296875,-0.34375,9.58203125,[0. 0. 0. 0. 0. 0. 0. 0. 0.]
1742663966524986522,1742663966,503324014,imu_link,-0.0164794921875,0.0958251953125,0.00439453125,0.9952392578125,[0. 0. 0. 0. 0. 0. 0. 0. 0.],-0.00390625,0.001953125,-0.0078125,[0. 0. 0. 0. 0. 0. 0. 0. 0.],-2.375,-0.26953125,9.5390625,[0. 0. 0. 0. 0. 0. 0. 0. 0.]
1742663966533656737,1742663966,527680593,imu_link,-0.0164794921875,0.0958251953125,0.00439453125,0.9952392578125,[0. 0. 0. 0. 0. 0. 0. 0. 0.],-0.00390625,0.001953125,-0.0078125,[0. 0. 0. 0. 0. 0. 0. 0. 0.],-2.22265625,-0.34375,9.609375,[0. 0. 0. 0. 0. 0. 0. 0. 0.]
1742663966550861610,1742663966,543399642,imu_link,-0.0164794921875,0.0958251953125,0.00439453125,0.9952392578125,[0. 0. 0. 0. 0. 0. 0. 0. 0.],-0.005859375,0.00390625,-0.0078125,[0. 0. 0. 0. 0. 0. 0. 0. 0.],-2.22265625,-0.34375,9.609375,[0. 0. 0. 0. 0. 0. 0. 0. 0.]
1742663966578123556,1742663966,563338975,imu_link,-0.01666259765625,0.09552001953125,0.004150390625,0.99530029296875,[0. 0. 0. 0. 0. 0. 0. 0. 0.],-0.005859375,0.00390625,-0.0078125,[0. 0. 0. 0. 0. 0. 0. 0. 0.],-2.10546875,-0.34375,9.50390625,[0. 0. 0. 0. 0. 0. 0. 0. 0.]
1742663966586930105,1742663966,583454141,imu_link,-0.01666259765625,0.09552001953125,0.004150390625,0.99530029296875,[0. 0. 0. 0. 0. 0. 0. 0. 0.],-0.005859375,0.00390625,-0.0078125,[0. 0. 0. 0. 0. 0. 0. 0. 0.],-2.10546875,-0.34375,9.50390625,[0. 0. 0. 0. 0. 0. 0. 0. 0.]
1742663966629506969,1742663966,603363195,imu_link,-0.016845703125,0.09521484375,0.00396728515625,0.99530029296875,[0. 0. 0. 0. 0. 0. 0. 0. 0.],-0.009765625,0.00390625,-0.005859375,[0. 0. 0. 0. 0. 0. 0. 0. 0.],-2.14453125,-0.26953125,9.61328125,[0. 0. 0. 0. 0. 0. 0. 0. 0.]
1742663966633737678,1742663966,631323961,imu_link,-0.016845703125,0.09521484375,0.00396728515625,0.99530029296875,[0. 0. 0. 0. 0. 0. 0. 0. 0.],-0.009765625,0.00390625,-0.005859375,[0. 0. 0. 0. 0. 0. 0. 0. 0.],-1.953125,-0.3828125,9.5,[0. 0. 0. 0. 0. 0. 0. 0. 0.]
1742663966649998008,1742663966,643423768,imu_link,-0.016845703125,0.09521484375,0.00396728515625,0.99530029296875,[0. 0. 0. 0. 0. 0. 0. 0. 0.],-0.001953125,0.005859375,0.005859375,[0. 0. 0. 0. 0. 0. 0. 0. 0.],-1.953125,-0.3828125,9.5,[0. 0. 0. 0. 0. 0. 0. 0. 0.]
1742663966678303905,1742663966,663360119,imu_link,-0.0169677734375,0.09490966796875,0.00396728515625,0.995361328125,[0. 0. 0. 0. 0. 0. 0. 0. 0.],-0.001953125,0.005859375,0.005859375,[0. 0. 0. 0. 0. 0. 0. 0. 0.],-1.72265625,-0.3828125,9.69140625,[0. 0. 0. 0. 0. 0. 0. 0. 0.]
1742663966690487398,1742663966,683341914,imu_link,-0.0169677734375,0.09490966796875,0.00396728515625,0.995361328125,[0. 0. 0. 0. 0. 0. 0. 0. 0.],-0.001953125,0.005859375,0.005859375,[0. 0. 0. 0. 0. 0. 0. 0. 0.],-1.72265625,-0.3828125,9.69140625,[0. 0. 0. 0. 0. 0. 0. 0. 0.]
1742663966706807155,1742663966,703355617,imu_link,-0.0169677734375,0.09490966796875,0.00396728515625,0.995361328125,[0. 0. 0. 0. 0. 0. 0. 0. 0.],0.00390625,0.005859375,0.0078125,[0. 0. 0. 0. 0. 0. 0. 0. 0.],-1.5703125,-0.34375,9.54296875,[0. 0. 0. 0. 0. 0. 0. 0. 0.]
1742663966737905474,1742663966,723444339,imu_link,-0.01629638671875,0.0985107421875,0.0042724609375,0.9949951171875,[0. 0. 0. 0. 0. 0. 0. 0. 0.],0.00390625,0.005859375,0.0078125,[0. 0. 0. 0. 0. 0. 0. 0. 0.],-1.53125,-0.26953125,9.65234375,[0. 0. 0. 0. 0. 0. 0. 0. 0.]
1742663966756344854,1742663966,744453344,imu_link,-0.01629638671875,0.0985107421875,0.0042724609375,0.9949951171875,[0. 0. 0. 0. 0. 0. 0. 0. 0.],0.00390625,0.005859375,0.0,[0. 0. 0. 0. 0. 0. 0. 0. 0.],-1.41796875,-0.26953125,9.54296875,[0. 0. 0. 0. 0. 0. 0. 0. 0.]
1742663966777549063,1742663966,763633135,imu_link,-0.01617431640625,0.09979248046875,0.00433349609375,0.994873046875,[0. 0. 0. 0. 0. 0. 0. 0. 0.],0.00390625,0.005859375,0.0,[0. 0. 0. 0. 0. 0. 0. 0. 0.],-1.41796875,-0.26953125,9.54296875,[0. 0. 0. 0. 0. 0. 0. 0. 0.]
1742663966789929298,1742663966,783373540,imu_link,-0.01617431640625,0.09979248046875,0.00433349609375,0.994873046875,[0. 0. 0. 0. 0. 0. 0. 0. 0.],0.00390625,0.005859375,0.0,[0. 0. 0. 0. 0. 0. 0. 0. 0.],-1.53125,-0.26953125,9.578125,[0. 0. 0. 0. 0. 0. 0. 0. 0.]
1742663966806839225,1742663966,803363780,imu_link,-0.01617431640625,0.09979248046875,0.00433349609375,0.994873046875,[0. 0. 0. 0. 0. 0. 0. 0. 0.],-0.001953125,0.00390625,0.005859375,[0. 0. 0. 0. 0. 0. 0. 0. 0.],-1.53125,-0.26953125,9.578125,[0. 0. 0. 0. 0. 0. 0. 0. 0.]
1742663966837641061,1742663966,823441705,imu_link,-0.0162353515625,0.10003662109375,0.00445556640625,0.994873046875,[0. 0. 0. 0. 0. 0. 0. 0. 0.],-0.001953125,0.00390625,0.005859375,[0. 0. 0. 0. 0. 0. 0. 0. 0.],-1.80078125,-0.26953125,9.61328125,[0. 0. 0. 0. 0. 0. 0. 0. 0.]
1742663966855376011,1742663966,843359111,imu_link,-0.0162353515625,0.10003662109375,0.00445556640625,0.994873046875,[0. 0. 0. 0. 0. 0. 0. 0. 0.],-0.00390625,0.00390625,-0.009765625,[0. 0. 0. 0. 0. 0. 0. 0. 0.],-2.0703125,-0.3046875,9.5390625,[0. 0. 0. 0. 0. 0. 0. 0. 0.]
1742663966880515409,1742663966,863327110,imu_link,-0.01641845703125,0.1002197265625,0.0042724609375,0.99481201171875,[0. 0. 0. 0. 0. 0. 0. 0. 0.],-0.00390625,0.00390625,-0.009765625,[0. 0. 0. 0. 0. 0. 0. 0. 0.],-2.0703125,-0.3046875,9.5390625,[0. 0. 0. 0. 0. 0. 0. 0. 0.]
1742663966886721776,1742663966,883327109,imu_link,-0.01641845703125,0.1002197265625,0.0042724609375,0.99481201171875,[0. 0. 0. 0. 0. 0. 0. 0. 0.],-0.00390625,0.00390625,-0.009765625,[0. 0. 0. 0. 0. 0. 0. 0. 0.],-2.22265625,-0.34375,9.54296875,[0. 0. 0. 0. 0. 0. 0. 0. 0.]
1742663966923905611,1742663966,903521795,imu_link,-0.0164794921875,0.1004638671875,0.004150390625,0.99481201171875,[0. 0. 0. 0. 0. 0. 0. 0. 0.],-0.005859375,0.00390625,-0.0078125,[0. 0. 0. 0. 0. 0. 0. 0. 0.],-2.22265625,-0.3046875,9.5,[0. 0. 0. 0. 0. 0. 0. 0. 0.]
1742663966929333234,1742663966,926563700,imu_link,-0.0164794921875,0.1004638671875,0.004150390625,0.99481201171875,[0. 0. 0. 0. 0. 0. 0. 0. 0.],-0.005859375,0.00390625,-0.0078125,[0. 0. 0. 0. 0. 0. 0. 0. 0.],-2.22265625,-0.3046875,9.5,[0. 0. 0. 0. 0. 0. 0. 0. 0.]
1742663966955184950,1742663966,943436089,imu_link,-0.0164794921875,0.1004638671875,0.004150390625,0.99481201171875,[0. 0. 0. 0. 0. 0. 0. 0. 0.],-0.0078125,0.001953125,-0.0078125,[0. 0. 0. 0. 0. 0. 0. 0. 0.],-2.18359375,-0.26953125,9.578125,[0. 0. 0. 0. 0. 0. 0. 0. 0.]
1742663966982812399,1742663966,963370440,imu_link,-0.01654052734375,0.1007080078125,0.00396728515625,0.9947509765625,[0. 0. 0. 0. 0. 0. 0. 0. 0.],-0.0078125,0.001953125,-0.0078125,[0. 0. 0. 0. 0. 0. 0. 0. 0.],-2.10546875,-0.3046875,9.5,[0. 0. 0. 0. 0. 0. 0. 0. 0.]
1742663966988888673,1742663966,985776897,imu_link,-0.01654052734375,0.1007080078125,0.00396728515625,0.9947509765625,[0. 0. 0. 0. 0. 0. 0. 0. 0.],-0.0078125,0.001953125,-0.0078125,[0. 0. 0. 0. 0. 0. 0. 0. 0.],-2.10546875,-0.3046875,9.5,[0. 0. 0. 0. 0. 0. 0. 0. 0.]
1742663967010053753,1742663967,3362234,imu_link,-0.01654052734375,0.1007080078125,0.00396728515625,0.9947509765625,[0. 0. 0. 0. 0. 0. 0. 0. 0.],-0.01171875,0.001953125,-0.005859375,[0. 0. 0. 0. 0. 0. 0. 0. 0.],-2.03125,-0.421875,9.609375,[0. 0. 0. 0. 0. 0. 0. 0. 0.]
1742663967026865345,1742663967,23351956,imu_link,-0.0166015625,0.10089111328125,0.0037841796875,0.9947509765625,[0. 0. 0. 0. 0. 0. 0. 0. 0.],-0.01171875,0.001953125,-0.005859375,[0. 0. 0. 0. 0. 0. 0. 0. 0.],-2.03125,-0.421875,9.609375,[0. 0. 0. 0. 0. 0. 0. 0. 0.]
1742663967055560504,1742663967,43370085,imu_link,-0.0166015625,0.10089111328125,0.0037841796875,0.9947509765625,[0. 0. 0. 0. 0. 0. 0. 0. 0.],-0.013671875,0.001953125,-0.001953125,[0. 0. 0. 0. 0. 0. 0. 0. 0.],-1.9921875,-0.34375,9.65234375,[0. 0. 0. 0. 0. 0. 0. 0. 0.]
1742663967077560403,1742663967,63340232,imu_link,-0.01666259765625,0.10107421875,0.0037841796875,0.9947509765625,[0. 0. 0. 0. 0. 0. 0. 0. 0.],-0.013671875,0.001953125,-0.001953125,[0. 0. 0. 0. 0. 0. 0. 0. 0.],-1.80078125,-0.3046875,9.46484375,[0. 0. 0. 0. 0. 0. 0. 0. 0.]
1742663967087083196,1742663967,83480343,imu_link,-0.01666259765625,0.10107421875,0.0037841796875,0.9947509765625,[0. 0. 0. 0. 0. 0. 0. 0. 0.],-0.013671875,0.001953125,-0.001953125,[0. 0. 0. 0. 0. 0. 0. 0. 0.],-1.80078125,-0.3046875,9.46484375,[0. 0. 0. 0. 0. 0. 0. 0. 0.]
1742663967124751626,1742663967,103347230,imu_link,-0.0167236328125,0.101318359375,0.0037841796875,0.99468994140625,[0. 0. 0. 0. 0. 0. 0. 0. 0.],-0.01171875,0.001953125,0.0,[0. 0. 0. 0. 0. 0. 0. 0. 0.],-1.72265625,-0.34375,9.6484375,[0. 0. 0. 0. 0. 0. 0. 0. 0.]
1742663967134191215,1742663967,127425140,imu_link,-0.0167236328125,0.101318359375,0.0037841796875,0.99468994140625,[0. 0. 0. 0. 0. 0. 0. 0. 0.],-0.01171875,0.001953125,0.0,[0. 0. 0. 0. 0. 0. 0. 0. 0.],-1.76171875,-0.3046875,9.5390625,[0. 0. 0. 0. 0. 0. 0. 0. 0.]
1742663967151178308,1742663967,143352321,imu_link,-0.0167236328125,0.101318359375,0.0037841796875,0.99468994140625,[0. 0. 0. 0. 0. 0. 0. 0. 0.],-0.009765625,0.001953125,-0.00390625,[0. 0. 0. 0. 0. 0. 0. 0. 0.],-1.76171875,-0.3046875,9.5390625,[0. 0. 0. 0. 0. 0. 0. 0. 0.]
1742663967177859178,1742663967,163407728,imu_link,-0.0167236328125,0.1015625,0.0037841796875,0.99468994140625,[0. 0. 0. 0. 0. 0. 0. 0. 0.],-0.009765625,0.001953125,-0.00390625,[0. 0. 0. 0. 0. 0. 0. 0. 0.],-1.83984375,-0.3828125,9.54296875,[0. 0. 0. 0. 0. 0. 0. 0. 0.]
1742663967186738116,1742663967,183327782,imu_link,-0.0167236328125,0.1015625,0.0037841796875,0.99468994140625,[0. 0. 0. 0. 0. 0. 0. 0. 0.],-0.009765625,0.001953125,-0.00390625,[0. 0. 0. 0. 0. 0. 0. 0. 0.],-1.83984375,-0.3828125,9.54296875,[0. 0. 0. 0. 0. 0. 0. 0. 0.]
1742663967228085307,1742663967,203436615,imu_link,-0.0167236328125,0.101806640625,0.00372314453125,0.99468994140625,[0. 0. 0. 0. 0. 0. 0. 0. 0.],-0.01171875,0.00390625,-0.001953125,[0. 0. 0. 0. 0. 0. 0. 0. 0.],-1.87890625,-0.3046875,9.65234375,[0. 0. 0. 0. 0. 0. 0. 0. 0.]
1742663967232847796,1742663967,229823242,imu_link,-0.0167236328125,0.101806640625,0.00372314453125,0.99468994140625,[0. 0. 0. 0. 0. 0. 0. 0. 0.],-0.01171875,0.00390625,-0.001953125,[0. 0. 0. 0. 0. 0. 0. 0. 0.],-1.9921875,-0.26953125,9.5,[0. 0. 0. 0. 0. 0. 0. 0. 0.]
1742663967250297373,1742663967,243602244,imu_link,-0.0167236328125,0.101806640625,0.00372314453125,0.99468994140625,[0. 0. 0. 0. 0. 0. 0. 0. 0.],-0.0078125,0.001953125,0.0,[0. 0. 0. 0. 0. 0. 0. 0. 0.],-1.9921875,-0.26953125,9.5,[0. 0. 0. 0. 0. 0. 0. 0. 0.]
1742663967278190768,1742663967,263455335,imu_link,-0.016845703125,0.1019287109375,0.00372314453125,0.99462890625,[0. 0. 0. 0. 0. 0. 0. 0. 0.],-0.0078125,0.001953125,0.0,[0. 0. 0. 0. 0. 0. 0. 0. 0.],-2.0703125,-0.34375,9.58203125,[0. 0. 0. 0. 0. 0. 0. 0. 0.]
1742663967289821277,1742663967,283341444,imu_link,-0.016845703125,0.1019287109375,0.00372314453125,0.99462890625,[0. 0. 0. 0. 0. 0. 0. 0. 0.],-0.0078125,0.001953125,0.0,[0. 0. 0. 0. 0. 0. 0. 0. 0.],-2.0703125,-0.34375,9.58203125,[0. 0. 0. 0. 0. 0. 0. 0. 0.]
1742663967306837370,1742663967,303394777,imu_link,-0.016845703125,0.1019287109375,0.00372314453125,0.99462890625,[0. 0. 0. 0. 0. 0. 0. 0. 0.],-0.001953125,0.001953125,-0.001953125,[0. 0. 0. 0. 0. 0. 0. 0. 0.],-2.14453125,-0.34375,9.578125,[0. 0. 0. 0. 0. 0. 0. 0. 0.]
1742663967337995542,1742663967,323437295,imu_link,-0.01690673828125,0.10205078125,0.00372314453125,0.99462890625,[0. 0. 0. 0. 0. 0. 0. 0. 0.],-0.001953125,0.001953125,-0.001953125,[0. 0. 0. 0. 0. 0. 0. 0. 0.],-2.10546875,-0.34375,9.54296875,[0. 0. 0. 0. 0. 0. 0. 0. 0.]
1742663967355929900,1742663967,344465893,imu_link,-0.01690673828125,0.10205078125,0.00372314453125,0.99462890625,[0. 0. 0. 0. 0. 0. 0. 0. 0.],0.005859375,0.001953125,0.001953125,[0. 0. 0. 0. 0. 0. 0. 0. 0.],-1.9921875,-0.34375,9.5390625,[0. 0. 0. 0. 0. 0. 0. 0. 0.]
1742663967377080758,1742663967,363330848,imu_link,-0.01690673828125,0.1021728515625,0.003662109375,0.99462890625,[0. 0. 0. 0. 0. 0. 0. 0. 0.],0.005859375,0.001953125,0.001953125,[0. 0. 0. 0. 0. 0. 0. 0. 0.],-1.9921875,-0.34375,9.5390625,[0. 0. 0. 0. 0. 0. 0. 0. 0.]
1742663967393677071,1742663967,383353107,imu_link,-0.01690673828125,0.1021728515625,0.003662109375,0.99462890625,[0. 0. 0. 0. 0. 0. 0. 0. 0.],0.005859375,0.001953125,0.001953125,[0. 0. 0. 0. 0. 0. 0. 0. 0.],-1.953125,-0.26953125,9.61328125,[0. 0. 0. 0. 0. 0. 0. 0. 0.]
1742663967406951811,1742663967,403388662,imu_link,-0.01690673828125,0.1021728515625,0.003662109375,0.99462890625,[0. 0. 0. 0. 0. 0. 0. 0. 0.],0.00390625,0.00390625,-0.00390625,[0. 0. 0. 0. 0. 0. 0. 0. 0.],-1.953125,-0.26953125,9.61328125,[0. 0. 0. 0. 0. 0. 0. 0. 0.]
1742663967437398460,1742663967,423418865,imu_link,-0.01702880859375,0.10235595703125,0.003662109375,0.99456787109375,[0. 0. 0. 0. 0. 0. 0. 0. 0.],0.00390625,0.00390625,-0.00390625,[0. 0. 0. 0. 0. 0. 0. 0. 0.],-1.76171875,-0.34375,9.54296875,[0. 0. 0. 0. 0. 0. 0. 0. 0.]
1742663967454873872,1742663967,443378530,imu_link,-0.01702880859375,0.10235595703125,0.003662109375,0.99456787109375,[0. 0. 0. 0. 0. 0. 0. 0. 0.],0.005859375,0.00390625,-0.001953125,[0. 0. 0. 0. 0. 0. 0. 0. 0.],-1.76171875,-0.34375,9.58203125,[0. 0. 0. 0. 0. 0. 0. 0. 0.]
1742663967479678990,1742663967,463344326,imu_link,-0.01708984375,0.1025390625,0.003662109375,0.99456787109375,[0. 0. 0. 0. 0. 0. 0. 0. 0.],0.005859375,0.00390625,-0.001953125,[0. 0. 0. 0. 0. 0. 0. 0. 0.],-1.76171875,-0.34375,9.58203125,[0. 0. 0. 0. 0. 0. 0. 0. 0.]
1742663967486731103,1742663967,483310417,imu_link,-0.01708984375,0.1025390625,0.003662109375,0.99456787109375,[0. 0. 0. 0. 0. 0. 0. 0. 0.],0.005859375,0.00390625,-0.001953125,[0. 0. 0. 0. 0. 0. 0. 0. 0.],-1.87890625,-0.34375,9.6484375,[0. 0. 0. 0. 0. 0. 0. 0. 0.]
1742663967522977506,1742663967,503357546,imu_link,-0.01715087890625,0.1026611328125,0.003662109375,0.99456787109375,[0. 0. 0. 0. 0. 0. 0. 0. 0.],0.0078125,0.0078125,0.00390625,[0. 0. 0. 0. 0. 0. 0. 0. 0.],-1.953125,-0.3046875,9.58203125,[0. 0. 0. 0. 0. 0. 0. 0. 0.]
1742663967527905608,1742663967,525698892,imu_link,-0.01715087890625,0.1026611328125,0.003662109375,0.99456787109375,[0. 0. 0. 0. 0. 0. 0. 0. 0.],0.0078125,0.0078125,0.00390625,[0. 0. 0. 0. 0. 0. 0. 0. 0.],-1.953125,-0.3046875,9.58203125,[0. 0. 0. 0. 0. 0. 0. 0. 0.]
1742663967555038942,1742663967,543390397,imu_link,-0.01715087890625,0.1026611328125,0.003662109375,0.99456787109375,[0. 0. 0. 0. 0. 0. 0. 0. 0.],0.0078125,0.0078125,-0.00390625,[0. 0. 0. 0. 0. 0. 0. 0. 0.],-2.03125,-0.3046875,9.50390625,[0. 0. 0. 0. 0. 0. 0. 0. 0.]
1742663967579719338,1742663967,563427618,imu_link,-0.01727294921875,0.102783203125,0.003662109375,0.99456787109375,[0. 0. 0. 0. 0. 0. 0. 0. 0.],0.0078125,0.0078125,-0.00390625,[0. 0. 0. 0. 0. 0. 0. 0. 0.],-2.03125,-0.34375,9.61328125,[0. 0. 0. 0. 0. 0. 0. 0. 0.]
1742663967586962155,1742663967,583421932,imu_link,-0.01727294921875,0.102783203125,0.003662109375,0.99456787109375,[0. 0. 0. 0. 0. 0. 0. 0. 0.],0.0078125,0.0078125,-0.00390625,[0. 0. 0. 0. 0. 0. 0. 0. 0.],-2.03125,-0.34375,9.61328125,[0. 0. 0. 0. 0. 0. 0. 0. 0.]
1742663967624559789,1742663967,603396783,imu_link,-0.01727294921875,0.102783203125,0.003662109375,0.99456787109375,[0. 0. 0. 0. 0. 0. 0. 0. 0.],0.01171875,0.005859375,-0.001953125,[0. 0. 0. 0. 0. 0. 0. 0. 0.],-2.03125,-0.34375,9.578125,[0. 0. 0. 0. 0. 0. 0. 0. 0.]
1742663967629202036,1742663967,627213581,imu_link,-0.01727294921875,0.102783203125,0.003662109375,0.99456787109375,[0. 0. 0. 0. 0. 0. 0. 0. 0.],0.01171875,0.005859375,-0.001953125,[0. 0. 0. 0. 0. 0. 0. 0. 0.],-2.03125,-0.34375,9.578125,[0. 0. 0. 0. 0. 0. 0. 0. 0.]
1742663967654967382,1742663967,643397800,imu_link,-0.01727294921875,0.102783203125,0.003662109375,0.99456787109375,[0. 0. 0. 0. 0. 0. 0. 0. 0.],0.01171875,0.005859375,-0.005859375,[0. 0. 0. 0. 0. 0. 0. 0. 0.],-1.9921875,-0.34375,9.5,[0. 0. 0. 0. 0. 0. 0. 0. 0.]
1742663967677050726,1742663967,663438095,imu_link,-0.0172119140625,0.10284423828125,0.00360107421875,0.99456787109375,[0. 0. 0. 0. 0. 0. 0. 0. 0.],0.01171875,0.005859375,-0.005859375,[0. 0. 0. 0. 0. 0. 0. 0. 0.],-1.9921875,-0.34375,9.65234375,[0. 0. 0. 0. 0. 0. 0. 0. 0.]
1742663967686834299,1742663967,683322168,imu_link,-0.0172119140625,0.10284423828125,0.00360107421875,0.99456787109375,[0. 0. 0. 0. 0. 0. 0. 0. 0.],0.01171875,0.005859375,-0.005859375,[0. 0. 0. 0. 0. 0. 0. 0. 0.],-1.9921875,-0.34375,9.65234375,[0. 0. 0. 0. 0. 0. 0. 0. 0.]
1742663967724577395,1742663967,703371427,imu_link,-0.0172119140625,0.10284423828125,0.00347900390625,0.99456787109375,[0. 0. 0. 0. 0. 0. 0. 0. 0.],0.005859375,0.005859375,-0.00390625,[0. 0. 0. 0. 0. 0. 0. 0. 0.],-1.9921875,-0.34375,9.5,[0. 0. 0. 0. 0. 0. 0. 0. 0.]
1742663967733682409,1742663967,727425078,imu_link,-0.0172119140625,0.10284423828125,0.00347900390625,0.99456787109375,[0. 0. 0. 0. 0. 0. 0. 0. 0.],0.005859375,0.005859375,-0.00390625,[0. 0. 0. 0. 0. 0. 0. 0. 0.],-1.9921875,-0.34375,9.5,[0. 0. 0. 0. 0. 0. 0. 0. 0.]
1742663967749948609,1742663967,743375295,imu_link,-0.0172119140625,0.10284423828125,0.00347900390625,0.99456787109375,[0. 0. 0. 0. 0. 0. 0. 0. 0.],0.00390625,0.001953125,-0.009765625,[0. 0. 0. 0. 0. 0. 0. 0. 0.],-1.9921875,-0.34375,9.5390625,[0. 0. 0. 0. 0. 0. 0. 0. 0.]
1742663967776991925,1742663967,763528944,imu_link,-0.01727294921875,0.102783203125,0.00335693359375,0.99456787109375,[0. 0. 0. 0. 0. 0. 0. 0. 0.],0.00390625,0.001953125,-0.009765625,[0. 0. 0. 0. 0. 0. 0. 0. 0.],-1.9921875,-0.34375,9.61328125,[0. 0. 0. 0. 0. 0. 0. 0. 0.]
1742663967786719127,1742663967,783323108,imu_link,-0.01727294921875,0.102783203125,0.00335693359375,0.99456787109375,[0. 0. 0. 0. 0. 0. 0. 0. 0.],0.00390625,0.001953125,-0.009765625,[0. 0. 0. 0. 0. 0. 0. 0. 0.],-1.9921875,-0.34375,9.61328125,[0. 0. 0. 0. 0. 0. 0. 0. 0.]
1742663967827366388,1742663967,803401460,imu_link,-0.017333984375,0.102783203125,0.00323486328125,0.99456787109375,[0. 0. 0. 0. 0. 0. 0. 0. 0.],0.00390625,0.001953125,-0.00390625,[0. 0. 0. 0. 0. 0. 0. 0. 0.],-2.03125,-0.34375,9.578125,[0. 0. 0. 0. 0. 0. 0. 0. 0.]
1742663967832902530,1742663967,829157416,imu_link,-0.017333984375,0.102783203125,0.00323486328125,0.99456787109375,[0. 0. 0. 0. 0. 0. 0. 0. 0.],0.00390625,0.001953125,-0.00390625,[0. 0. 0. 0. 0. 0. 0. 0. 0.],-1.9921875,-0.3046875,9.54296875,[0. 0. 0. 0. 0. 0. 0. 0. 0.]
1742663967849941198,1742663967,843390217,imu_link,-0.017333984375,0.102783203125,0.00323486328125,0.99456787109375,[0. 0. 0. 0. 0. 0. 0. 0. 0.],-0.001953125,0.00390625,-0.00390625,[0. 0. 0. 0. 0. 0. 0. 0. 0.],-1.9921875,-0.3046875,9.54296875,[0. 0. 0. 0. 0. 0. 0. 0. 0.]
1742663967876849809,1742663967,863434309,imu_link,-0.0174560546875,0.10284423828125,0.00311279296875,0.99456787109375,[0. 0. 0. 0. 0. 0. 0. 0. 0.],-0.001953125,0.00390625,-0.00390625,[0. 0. 0. 0. 0. 0. 0. 0. 0.],-1.87890625,-0.3828125,9.609375,[0. 0. 0. 0. 0. 0. 0. 0. 0.]
1742663967892742063,1742663967,883335160,imu_link,-0.0174560546875,0.10284423828125,0.00311279296875,0.99456787109375,[0. 0. 0. 0. 0. 0. 0. 0. 0.],-0.001953125,0.00390625,-0.00390625,[0. 0. 0. 0. 0. 0. 0. 0. 0.],-1.87890625,-0.3828125,9.609375,[0. 0. 0. 0. 0. 0. 0. 0. 0.]
1742663967906927012,1742663967,903434178,imu_link,-0.0174560546875,0.10284423828125,0.00311279296875,0.99456787109375,[0. 0. 0. 0. 0. 0. 0. 0. 0.],-0.005859375,0.00390625,-0.005859375,[0. 0. 0. 0. 0. 0. 0. 0. 0.],-1.80078125,-0.34375,9.578125,[0. 0. 0. 0. 0. 0. 0. 0. 0.]
1742663967936791880,1742663967,923432399,imu_link,-0.017578125,0.1029052734375,0.0029296875,0.9945068359375,[0. 0. 0. 0. 0. 0. 0. 0. 0.],-0.005859375,0.00390625,-0.005859375,[0. 0. 0. 0. 0. 0. 0. 0. 0.],-1.9140625,-0.26953125,9.5390625,[0. 0. 0. 0. 0. 0. 0. 0. 0.]
1742663967949321746,1742663967,943391398,imu_link,-0.017578125,0.1029052734375,0.0029296875,0.9945068359375,[0. 0. 0. 0. 0. 0. 0. 0. 0.],-0.005859375,0.00390625,-0.009765625,[0. 0. 0. 0. 0. 0. 0. 0. 0.],-1.9140625,-0.26953125,9.5390625,[0. 0. 0. 0. 0. 0. 0. 0. 0.]
1742663967976443673,1742663967,964569700,imu_link,-0.0177001953125,0.1029052734375,0.00274658203125,0.9945068359375,[0. 0. 0. 0. 0. 0. 0. 0. 0.],-0.005859375,0.00390625,-0.009765625,[0. 0. 0. 0. 0. 0. 0. 0. 0.],-1.9921875,-0.3828125,9.65234375,[0. 0. 0. 0. 0. 0. 0. 0. 0.]
1742663967993572249,1742663967,983327118,imu_link,-0.0177001953125,0.1029052734375,0.00274658203125,0.9945068359375,[0. 0. 0. 0. 0. 0. 0. 0. 0.],-0.005859375,0.00390625,-0.009765625,[0. 0. 0. 0. 0. 0. 0. 0. 0.],-2.0703125,-0.3046875,9.5390625,[0. 0. 0. 0. 0. 0. 0. 0. 0.]
1742663968006403894,1742663968,3476600,imu_link,-0.0177001953125,0.1029052734375,0.00274658203125,0.9945068359375,[0. 0. 0. 0. 0. 0. 0. 0. 0.],-0.005859375,0.00390625,-0.0078125,[0. 0. 0. 0. 0. 0. 0. 0. 0.],-2.0703125,-0.3046875,9.5390625,[0. 0. 0. 0. 0. 0. 0. 0. 0.]
1742663968036757839,1742663968,23440080,imu_link,-0.017822265625,0.1029052734375,0.00262451171875,0.9945068359375,[0. 0. 0. 0. 0. 0. 0. 0. 0.],-0.005859375,0.00390625,-0.0078125,[0. 0. 0. 0. 0. 0. 0. 0. 0.],-2.14453125,-0.3046875,9.54296875,[0. 0. 0. 0. 0. 0. 0. 0. 0.]
1742663968054170620,1742663968,43372079,imu_link,-0.017822265625,0.1029052734375,0.00262451171875,0.9945068359375,[0. 0. 0. 0. 0. 0. 0. 0. 0.],-0.005859375,0.001953125,-0.0078125,[0. 0. 0. 0. 0. 0. 0. 0. 0.],-2.10546875,-0.3828125,9.609375,[0. 0. 0. 0. 0. 0. 0. 0. 0.]
1742663968079623779,1742663968,63437615,imu_link,-0.01788330078125,0.1029052734375,0.00244140625,0.9945068359375,[0. 0. 0. 0. 0. 0. 0. 0. 0.],-0.005859375,0.001953125,-0.0078125,[0. 0. 0. 0. 0. 0. 0. 0. 0.],-2.10546875,-0.3828125,9.609375,[0. 0. 0. 0. 0. 0. 0. 0. 0.]
1742663968086237426,1742663968,83372392,imu_link,-0.01788330078125,0.1029052734375,0.00244140625,0.9945068359375,[0. 0. 0. 0. 0. 0. 0. 0. 0.],-0.005859375,0.001953125,-0.0078125,[0. 0. 0. 0. 0. 0. 0. 0. 0.],-1.9921875,-0.421875,9.50390625,[0. 0. 0. 0. 0. 0. 0. 0. 0.]
1742663968120917395,1742663968,103344928,imu_link,-0.017822265625,0.10296630859375,0.00244140625,0.9945068359375,[0. 0. 0. 0. 0. 0. 0. 0. 0.],-0.001953125,0.001953125,0.0,[0. 0. 0. 0. 0. 0. 0. 0. 0.],-1.9921875,-0.421875,9.50390625,[0. 0. 0. 0. 0. 0. 0. 0. 0.]
1742663968126326999,1742663968,123537965,imu_link,-0.017822265625,0.10296630859375,0.00244140625,0.9945068359375,[0. 0. 0. 0. 0. 0. 0. 0. 0.],-0.001953125,0.001953125,0.0,[0. 0. 0. 0. 0. 0. 0. 0. 0.],-1.9921875,-0.34375,9.61328125,[0. 0. 0. 0. 0. 0. 0. 0. 0.]
1742663968154246838,1742663968,143384593,imu_link,-0.017822265625,0.10296630859375,0.00244140625,0.9945068359375,[0. 0. 0. 0. 0. 0. 0. 0. 0.],0.0078125,0.00390625,-0.001953125,[0. 0. 0. 0. 0. 0. 0. 0. 0.],-1.87890625,-0.3828125,9.609375,[0. 0. 0. 0. 0. 0. 0. 0. 0.]
1742663968178890992,1742663968,163437870,imu_link,-0.0177001953125,0.10308837890625,0.0023193359375,0.9945068359375,[0. 0. 0. 0. 0. 0. 0. 0. 0.],0.0078125,0.00390625,-0.001953125,[0. 0. 0. 0. 0. 0. 0. 0. 0.],-1.87890625,-0.34375,9.50390625,[0. 0. 0. 0. 0. 0. 0. 0. 0.]
1742663968186368219,1742663968,183337665,imu_link,-0.0177001953125,0.10308837890625,0.0023193359375,0.9945068359375,[0. 0. 0. 0. 0. 0. 0. 0. 0.],0.0078125,0.00390625,-0.001953125,[0. 0. 0. 0. 0. 0. 0. 0. 0.],-1.87890625,-0.34375,9.50390625,[0. 0. 0. 0. 0. 0. 0. 0. 0.]
1742663968222560566,1742663968,203743166,imu_link,-0.01763916015625,0.1031494140625,0.0023193359375,0.9945068359375,[0. 0. 0. 0. 0. 0. 0. 0. 0.],-0.001953125,0.00390625,-0.001953125,[0. 0. 0. 0. 0. 0. 0. 0. 0.],-1.9140625,-0.23046875,9.58203125,[0. 0. 0. 0. 0. 0. 0. 0. 0.]
1742663968227340074,1742663968,225442786,imu_link,-0.01763916015625,0.1031494140625,0.0023193359375,0.9945068359375,[0. 0. 0. 0. 0. 0. 0. 0. 0.],-0.001953125,0.00390625,-0.001953125,[0. 0. 0. 0. 0. 0. 0. 0. 0.],-1.9140625,-0.23046875,9.58203125,[0. 0. 0. 0. 0. 0. 0. 0. 0.]
1742663968254164592,1742663968,243434978,imu_link,-0.01763916015625,0.1031494140625,0.0023193359375,0.9945068359375,[0. 0. 0. 0. 0. 0. 0. 0. 0.],-0.00390625,-0.001953125,-0.013671875,[0. 0. 0. 0. 0. 0. 0. 0. 0.],-1.9921875,-0.3046875,9.54296875,[0. 0. 0. 0. 0. 0. 0. 0. 0.]
1742663968276565364,1742663968,263459070,imu_link,-0.0177001953125,0.10308837890625,0.00201416015625,0.9945068359375,[0. 0. 0. 0. 0. 0. 0. 0. 0.],-0.00390625,-0.001953125,-0.013671875,[0. 0. 0. 0. 0. 0. 0. 0. 0.],-1.9921875,-0.3828125,9.61328125,[0. 0. 0. 0. 0. 0. 0. 0. 0.]
1742663968286134935,1742663968,283342994,imu_link,-0.0177001953125,0.10308837890625,0.00201416015625,0.9945068359375,[0. 0. 0. 0. 0. 0. 0. 0. 0.],-0.00390625,-0.001953125,-0.013671875,[0. 0. 0. 0. 0. 0. 0. 0. 0.],-1.9921875,-0.3828125,9.61328125,[0. 0. 0. 0. 0. 0. 0. 0. 0.]
1742663968322045948,1742663968,303433197,imu_link,-0.01776123046875,0.1031494140625,0.00189208984375,0.9945068359375,[0. 0. 0. 0. 0. 0. 0. 0. 0.],-0.005859375,0.00390625,-0.001953125,[0. 0. 0. 0. 0. 0. 0. 0. 0.],-2.10546875,-0.34375,9.58203125,[0. 0. 0. 0. 0. 0. 0. 0. 0.]
1742663968326914086,1742663968,324754056,imu_link,-0.01776123046875,0.1031494140625,0.00189208984375,0.9945068359375,[0. 0. 0. 0. 0. 0. 0. 0. 0.],-0.005859375,0.00390625,-0.001953125,[0. 0. 0. 0. 0. 0. 0. 0. 0.],-2.10546875,-0.34375,9.58203125,[0. 0. 0. 0. 0. 0. 0. 0. 0.]
1742663968354221033,1742663968,343424233,imu_link,-0.01776123046875,0.1031494140625,0.00189208984375,0.9945068359375,[0. 0. 0. 0. 0. 0. 0. 0. 0.],-0.0078125,0.001953125,-0.009765625,[0. 0. 0. 0. 0. 0. 0. 0. 0.],-2.03125,-0.34375,9.5390625,[0. 0. 0. 0. 0. 0. 0. 0. 0.]
1742663968376309117,1742663968,363432158,imu_link,-0.0179443359375,0.1031494140625,0.001708984375,0.9945068359375,[0. 0. 0. 0. 0. 0. 0. 0. 0.],-0.0078125,0.001953125,-0.009765625,[0. 0. 0. 0. 0. 0. 0. 0. 0.],-2.03125,-0.3828125,9.5390625,[0. 0. 0. 0. 0. 0. 0. 0. 0.]
1742663968386144635,1742663968,383341212,imu_link,-0.0179443359375,0.1031494140625,0.001708984375,0.9945068359375,[0. 0. 0. 0. 0. 0. 0. 0. 0.],-0.0078125,0.001953125,-0.009765625,[0. 0. 0. 0. 0. 0. 0. 0. 0.],-2.03125,-0.3828125,9.5390625,[0. 0. 0. 0. 0. 0. 0. 0. 0.]
1742663968420779048,1742663968,403501730,imu_link,-0.0179443359375,0.1031494140625,0.0015869140625,0.9945068359375,[0. 0. 0. 0. 0. 0. 0. 0. 0.],-0.0078125,0.001953125,-0.005859375,[0. 0. 0. 0. 0. 0. 0. 0. 0.],-2.03125,-0.34375,9.578125,[0. 0. 0. 0. 0. 0. 0. 0. 0.]
1742663968430590157,1742663968,427600085,imu_link,-0.0179443359375,0.1031494140625,0.0015869140625,0.9945068359375,[0. 0. 0. 0. 0. 0. 0. 0. 0.],-0.0078125,0.001953125,-0.005859375,[0. 0. 0. 0. 0. 0. 0. 0. 0.],-1.9921875,-0.34375,9.578125,[0. 0. 0. 0. 0. 0. 0. 0. 0.]
1742663968451410994,1742663968,443386191,imu_link,-0.0179443359375,0.1031494140625,0.0015869140625,0.9945068359375,[0. 0. 0. 0. 0. 0. 0. 0. 0.],-0.0078125,0.001953125,-0.005859375,[0. 0. 0. 0. 0. 0. 0. 0. 0.],-1.9921875,-0.34375,9.578125,[0. 0. 0. 0. 0. 0. 0. 0. 0.]
1742663968476640967,1742663968,463392597,imu_link,-0.01806640625,0.10321044921875,0.00140380859375,0.9945068359375,[0. 0. 0. 0. 0. 0. 0. 0. 0.],-0.0078125,0.001953125,-0.005859375,[0. 0. 0. 0. 0. 0. 0. 0. 0.],-1.9921875,-0.34375,9.5,[0. 0. 0. 0. 0. 0. 0. 0. 0.]
1742663968494784030,1742663968,483395708,imu_link,-0.01806640625,0.10321044921875,0.00140380859375,0.9945068359375,[0. 0. 0. 0. 0. 0. 0. 0. 0.],-0.0078125,0.001953125,-0.005859375,[0. 0. 0. 0. 0. 0. 0. 0. 0.],-1.9921875,-0.34375,9.5,[0. 0. 0. 0. 0. 0. 0. 0. 0.]
1742663968505675664,1742663968,503415485,imu_link,-0.01806640625,0.10321044921875,0.00140380859375,0.9945068359375,[0. 0. 0. 0. 0. 0. 0. 0. 0.],-0.013671875,0.0,-0.00390625,[0. 0. 0. 0. 0. 0. 0. 0. 0.],-1.9921875,-0.34375,9.65234375,[0. 0. 0. 0. 0. 0. 0. 0. 0.]
1742663968535345716,1742663968,523355335,imu_link,-0.01812744140625,0.103271484375,0.00128173828125,0.9945068359375,[0. 0. 0. 0. 0. 0. 0. 0. 0.],-0.013671875,0.0,-0.00390625,[0. 0. 0. 0. 0. 0. 0. 0. 0.],-1.953125,-0.3828125,9.5,[0. 0. 0. 0. 0. 0. 0. 0. 0.]
1742663968548911050,1742663968,543390261,imu_link,-0.01812744140625,0.103271484375,0.00128173828125,0.9945068359375,[0. 0. 0. 0. 0. 0. 0. 0. 0.],-0.01171875,0.001953125,0.0,[0. 0. 0. 0. 0. 0. 0. 0. 0.],-1.953125,-0.3828125,9.5,[0. 0. 0. 0. 0. 0. 0. 0. 0.]
1742663968576590962,1742663968,563362982,imu_link,-0.0181884765625,0.103271484375,0.0013427734375,0.9945068359375,[0. 0. 0. 0. 0. 0. 0. 0. 0.],-0.01171875,0.001953125,0.0,[0. 0. 0. 0. 0. 0. 0. 0. 0.],-1.9921875,-0.34375,9.61328125,[0. 0. 0. 0. 0. 0. 0. 0. 0.]
1742663968594824377,1742663968,583433759,imu_link,-0.0181884765625,0.103271484375,0.0013427734375,0.9945068359375,[0. 0. 0. 0. 0. 0. 0. 0. 0.],-0.00390625,0.0,-0.0078125,[0. 0. 0. 0. 0. 0. 0. 0. 0.],-1.953125,-0.34375,9.578125,[0. 0. 0. 0. 0. 0. 0. 0. 0.]
1742663968605878512,1742663968,603599259,imu_link,-0.0181884765625,0.103271484375,0.0013427734375,0.9945068359375,[0. 0. 0. 0. 0. 0. 0. 0. 0.],-0.00390625,0.0,-0.0078125,[0. 0. 0. 0. 0. 0. 0. 0. 0.],-1.953125,-0.34375,9.578125,[0. 0. 0. 0. 0. 0. 0. 0. 0.]
1742663968635529139,1742663968,623411479,imu_link,-0.01824951171875,0.10333251953125,0.00115966796875,0.9945068359375,[0. 0. 0. 0. 0. 0. 0. 0. 0.],-0.00390625,0.0,-0.0078125,[0. 0. 0. 0. 0. 0. 0. 0. 0.],-1.9921875,-0.34375,9.578125,[0. 0. 0. 0. 0. 0. 0. 0. 0.]
1742663968654307502,1742663968,643337219,imu_link,-0.01824951171875,0.10333251953125,0.00115966796875,0.9945068359375,[0. 0. 0. 0. 0. 0. 0. 0. 0.],-0.001953125,0.00390625,-0.001953125,[0. 0. 0. 0. 0. 0. 0. 0. 0.],-2.0703125,-0.3046875,9.578125,[0. 0. 0. 0. 0. 0. 0. 0. 0.]
1742663968675340432,1742663968,663371348,imu_link,-0.0181884765625,0.10333251953125,0.0010986328125,0.9945068359375,[0. 0. 0. 0. 0. 0. 0. 0. 0.],-0.001953125,0.00390625,-0.001953125,[0. 0. 0. 0. 0. 0. 0. 0. 0.],-2.0703125,-0.3046875,9.578125,[0. 0. 0. 0. 0. 0. 0. 0. 0.]
1742663968685581841,1742663968,683326550,imu_link,-0.0181884765625,0.10333251953125,0.0010986328125,0.9945068359375,[0. 0. 0. 0. 0. 0. 0. 0. 0.],-0.001953125,0.00390625,-0.001953125,[0. 0. 0. 0. 0. 0. 0. 0. 0.],-2.03125,-0.3828125,9.5390625,[0. 0. 0. 0. 0. 0. 0. 0. 0.]
1742663968721514298,1742663968,703449828,imu_link,-0.0181884765625,0.10333251953125,0.00091552734375,0.9945068359375,[0. 0. 0. 0. 0. 0. 0. 0. 0.],0.001953125,0.001953125,-0.0078125,[0. 0. 0. 0. 0. 0. 0. 0. 0.],-2.0703125,-0.3828125,9.609375,[0. 0. 0. 0. 0. 0. 0. 0. 0.]
1742663968726109916,1742663968,724311517,imu_link,-0.0181884765625,0.10333251953125,0.00091552734375,0.9945068359375,[0. 0. 0. 0. 0. 0. 0. 0. 0.],0.001953125,0.001953125,-0.0078125,[0. 0. 0. 0. 0. 0. 0. 0. 0.],-2.0703125,-0.3828125,9.609375,[0. 0. 0. 0. 0. 0. 0. 0. 0.]
1742663968755630764,1742663968,743364400,imu_link,-0.0181884765625,0.10333251953125,0.00091552734375,0.9945068359375,[0. 0. 0. 0. 0. 0. 0. 0. 0.],0.00390625,0.005859375,0.001953125,[0. 0. 0. 0. 0. 0. 0. 0. 0.],-2.03125,-0.3828125,9.5390625,[0. 0. 0. 0. 0. 0. 0. 0. 0.]
1742663968779977879,1742663968,763777975,imu_link,-0.0181884765625,0.1033935546875,0.0008544921875,0.9945068359375,[0. 0. 0. 0. 0. 0. 0. 0. 0.],0.00390625,0.005859375,0.001953125,[0. 0. 0. 0. 0. 0. 0. 0. 0.],-1.9921875,-0.26953125,9.61328125,[0. 0. 0. 0. 0. 0. 0. 0. 0.]
1742663968785473095,1742663968,783323398,imu_link,-0.0181884765625,0.1033935546875,0.0008544921875,0.9945068359375,[0. 0. 0. 0. 0. 0. 0. 0. 0.],0.00390625,0.005859375,0.001953125,[0. 0. 0. 0. 0. 0. 0. 0. 0.],-1.9921875,-0.26953125,9.61328125,[0. 0. 0. 0. 0. 0. 0. 0. 0.]
1742663968820962272,1742663968,803433286,imu_link,-0.01824951171875,0.10345458984375,0.000732421875,0.99444580078125,[0. 0. 0. 0. 0. 0. 0. 0. 0.],-0.00390625,0.00390625,-0.0078125,[0. 0. 0. 0. 0. 0. 0. 0. 0.],-1.953125,-0.34375,9.5390625,[0. 0. 0. 0. 0. 0. 0. 0. 0.]
1742663968825783465,1742663968,823665509,imu_link,-0.01824951171875,0.10345458984375,0.000732421875,0.99444580078125,[0. 0. 0. 0. 0. 0. 0. 0. 0.],-0.00390625,0.00390625,-0.0078125,[0. 0. 0. 0. 0. 0. 0. 0. 0.],-1.953125,-0.34375,9.5390625,[0. 0. 0. 0. 0. 0. 0. 0. 0.]
1742663968854786958,1742663968,843424377,imu_link,-0.01824951171875,0.10345458984375,0.000732421875,0.99444580078125,[0. 0. 0. 0. 0. 0. 0. 0. 0.],0.001953125,0.001953125,-0.005859375,[0. 0. 0. 0. 0. 0. 0. 0. 0.],-1.9140625,-0.3828125,9.578125,[0. 0. 0. 0. 0. 0. 0. 0. 0.]
1742663968875507943,1742663968,863375543,imu_link,-0.01837158203125,0.10345458984375,0.00054931640625,0.99444580078125,[0. 0. 0. 0. 0. 0. 0. 0. 0.],0.001953125,0.001953125,-0.005859375,[0. 0. 0. 0. 0. 0. 0. 0. 0.],-1.953125,-0.34375,9.578125,[0. 0. 0. 0. 0. 0. 0. 0. 0.]
1742663968885675740,1742663968,883406357,imu_link,-0.01837158203125,0.10345458984375,0.00054931640625,0.99444580078125,[0. 0. 0. 0. 0. 0. 0. 0. 0.],0.001953125,0.001953125,-0.005859375,[0. 0. 0. 0. 0. 0. 0. 0. 0.],-1.953125,-0.34375,9.578125,[0. 0. 0. 0. 0. 0. 0. 0. 0.]
1742663968921490863,1742663968,903612005,imu_link,-0.0185546875,0.10345458984375,0.0003662109375,0.99444580078125,[0. 0. 0. 0. 0. 0. 0. 0. 0.],-0.001953125,0.00390625,-0.009765625,[0. 0. 0. 0. 0. 0. 0. 0. 0.],-2.0703125,-0.3046875,9.578125,[0. 0. 0. 0. 0. 0. 0. 0. 0.]
1742663968925935906,1742663968,924145674,imu_link,-0.0185546875,0.10345458984375,0.0003662109375,0.99444580078125,[0. 0. 0. 0. 0. 0. 0. 0. 0.],-0.001953125,0.00390625,-0.009765625,[0. 0. 0. 0. 0. 0. 0. 0. 0.],-2.0703125,-0.3046875,9.578125,[0. 0. 0. 0. 0. 0. 0. 0. 0.]
1742663968954740343,1742663968,943385243,imu_link,-0.0185546875,0.10345458984375,0.0003662109375,0.99444580078125,[0. 0. 0. 0. 0. 0. 0. 0. 0.],0.0,-0.001953125,-0.005859375,[0. 0. 0. 0. 0. 0. 0. 0. 0.],-2.10546875,-0.3828125,9.54296875,[0. 0. 0. 0. 0. 0. 0. 0. 0.]
1742663968976854020,1742663968,963330094,imu_link,-0.01861572265625,0.10345458984375,0.000244140625,0.99444580078125,[0. 0. 0. 0. 0. 0. 0. 0. 0.],0.0,-0.001953125,-0.005859375,[0. 0. 0. 0. 0. 0. 0. 0. 0.],-1.9921875,-0.4609375,9.61328125,[0. 0. 0. 0. 0. 0. 0. 0. 0.]
1742663968985560012,1742663968,983352908,imu_link,-0.01861572265625,0.10345458984375,0.000244140625,0.99444580078125,[0. 0. 0. 0. 0. 0. 0. 0. 0.],0.0,-0.001953125,-0.005859375,[0. 0. 0. 0. 0. 0. 0. 0. 0.],-1.9921875,-0.4609375,9.61328125,[0. 0. 0. 0. 0. 0. 0. 0. 0.]
1742663969020954133,1742663969,3432111,imu_link,-0.01861572265625,0.1033935546875,0.000244140625,0.99444580078125,[0. 0. 0. 0. 0. 0. 0. 0. 0.],0.005859375,0.00390625,0.0,[0. 0. 0. 0. 0. 0. 0. 0. 0.],-2.03125,-0.3046875,9.50390625,[0. 0. 0. 0. 0. 0. 0. 0. 0.]
1742663969030413537,1742663969,26844499,imu_link,-0.01861572265625,0.1033935546875,0.000244140625,0.99444580078125,[0. 0. 0. 0. 0. 0. 0. 0. 0.],0.005859375,0.00390625,0.0,[0. 0. 0. 0. 0. 0. 0. 0. 0.],-1.9921875,-0.3046875,9.609375,[0. 0. 0. 0. 0. 0. 0. 0. 0.]
1742663969050662742,1742663969,43378016,imu_link,-0.01861572265625,0.1033935546875,0.000244140625,0.99444580078125,[0. 0. 0. 0. 0. 0. 0. 0. 0.],0.001953125,0.001953125,-0.0078125,[0. 0. 0. 0. 0. 0. 0. 0. 0.],-1.9921875,-0.3046875,9.609375,[0. 0. 0. 0. 0. 0. 0. 0. 0.]
1742663969075793399,1742663969,63369626,imu_link,-0.01873779296875,0.1033935546875,6.103515625e-05,0.99444580078125,[0. 0. 0. 0. 0. 0. 0. 0. 0.],0.001953125,0.001953125,-0.0078125,[0. 0. 0. 0. 0. 0. 0. 0. 0.],-1.9921875,-0.3828125,9.61328125,[0. 0. 0. 0. 0. 0. 0. 0. 0.]
1742663969085430433,1742663969,83392718,imu_link,-0.01873779296875,0.1033935546875,6.103515625e-05,0.99444580078125,[0. 0. 0. 0. 0. 0. 0. 0. 0.],0.001953125,0.001953125,-0.0078125,[0. 0. 0. 0. 0. 0. 0. 0. 0.],-1.9921875,-0.3828125,9.61328125,[0. 0. 0. 0. 0. 0. 0. 0. 0.]
1742663969105409525,1742663969,103436958,imu_link,-0.01873779296875,0.1033935546875,6.103515625e-05,0.99444580078125,[0. 0. 0. 0. 0. 0. 0. 0. 0.],0.0,0.00390625,-0.001953125,[0. 0. 0. 0. 0. 0. 0. 0. 0.],-2.03125,-0.34375,9.5390625,[0. 0. 0. 0. 0. 0. 0. 0. 0.]
1742663969136392158,1742663969,123383105,imu_link,-0.018798828125,0.1033935546875,-6.103515625e-05,0.99444580078125,[0. 0. 0. 0. 0. 0. 0. 0. 0.],0.0,0.00390625,-0.001953125,[0. 0. 0. 0. 0. 0. 0. 0. 0.],-2.03125,-0.34375,9.578125,[0. 0. 0. 0. 0. 0. 0. 0. 0.]
1742663969145404523,1742663969,143573976,imu_link,-0.018798828125,0.1033935546875,-6.103515625e-05,0.99444580078125,[0. 0. 0. 0. 0. 0. 0. 0. 0.],0.00390625,-0.001953125,-0.00390625,[0. 0. 0. 0. 0. 0. 0. 0. 0.],-2.03125,-0.34375,9.578125,[0. 0. 0. 0. 0. 0. 0. 0. 0.]
1742663969175471188,1742663969,163441974,imu_link,-0.018798828125,0.1033935546875,-0.00018310546875,0.99444580078125,[0. 0. 0. 0. 0. 0. 0. 0. 0.],0.00390625,-0.001953125,-0.00390625,[0. 0. 0. 0. 0. 0. 0. 0. 0.],-2.03125,-0.421875,9.58203125,[0. 0. 0. 0. 0. 0. 0. 0. 0.]
1742663969194502608,1742663969,183339806,imu_link,-0.018798828125,0.1033935546875,-0.00018310546875,0.99444580078125,[0. 0. 0. 0. 0. 0. 0. 0. 0.],0.001953125,0.001953125,0.0,[0. 0. 0. 0. 0. 0. 0. 0. 0.],-1.9921875,-0.3828125,9.5390625,[0. 0. 0. 0. 0. 0. 0. 0. 0.]
1742663969206477526,1742663969,204474996,imu_link,-0.018798828125,0.1033935546875,-0.00018310546875,0.99444580078125,[0. 0. 0. 0. 0. 0. 0. 0. 0.],0.001953125,0.001953125,0.0,[0. 0. 0. 0. 0. 0. 0. 0. 0.],-1.9921875,-0.3828125,9.5390625,[0. 0. 0. 0. 0. 0. 0. 0. 0.]
1742663969225366778,1742663969,223433805,imu_link,-0.018798828125,0.10345458984375,-0.0001220703125,0.99444580078125,[0. 0. 0. 0. 0. 0. 0. 0. 0.],0.001953125,0.001953125,0.0,[0. 0. 0. 0. 0. 0. 0. 0. 0.],-1.953125,-0.34375,9.61328125,[0. 0. 0. 0. 0. 0. 0. 0. 0.]
1742663969254405975,1742663969,243383822,imu_link,-0.018798828125,0.10345458984375,-0.0001220703125,0.99444580078125,[0. 0. 0. 0. 0. 0. 0. 0. 0.],0.0,0.001953125,-0.001953125,[0. 0. 0. 0. 0. 0. 0. 0. 0.],-1.953125,-0.3046875,9.58203125,[0. 0. 0. 0. 0. 0. 0. 0. 0.]
1742663969275121849,1742663969,263408099,imu_link,-0.01885986328125,0.10345458984375,-0.00018310546875,0.99444580078125,[0. 0. 0. 0. 0. 0. 0. 0. 0.],0.0,0.001953125,-0.001953125,[0. 0. 0. 0. 0. 0. 0. 0. 0.],-1.953125,-0.3046875,9.58203125,[0. 0. 0. 0. 0. 0. 0. 0. 0.]
1742663969294560048,1742663969,283356746,imu_link,-0.01885986328125,0.10345458984375,-0.00018310546875,0.99444580078125,[0. 0. 0. 0. 0. 0. 0. 0. 0.],-0.00390625,-0.00390625,-0.00390625,[0. 0. 0. 0. 0. 0. 0. 0. 0.],-1.9921875,-0.3046875,9.50390625,[0. 0. 0. 0. 0. 0. 0. 0. 0.]
1742663969305293478,1742663969,303398764,imu_link,-0.01885986328125,0.10345458984375,-0.00018310546875,0.99444580078125,[0. 0. 0. 0. 0. 0. 0. 0. 0.],-0.00390625,-0.00390625,-0.00390625,[0. 0. 0. 0. 0. 0. 0. 0. 0.],-1.9921875,-0.3046875,9.50390625,[0. 0. 0. 0. 0. 0. 0. 0. 0.]
1742663969343979080,1742663969,323347114,imu_link,-0.01898193359375,0.10345458984375,-0.00030517578125,0.99444580078125,[0. 0. 0. 0. 0. 0. 0. 0. 0.],-0.00390625,-0.00390625,-0.00390625,[0. 0. 0. 0. 0. 0. 0. 0. 0.],-2.03125,-0.34375,9.578125,[0. 0. 0. 0. 0. 0. 0. 0. 0.]
1742663969348698828,1742663969,345722719,imu_link,-0.01898193359375,0.10345458984375,-0.00030517578125,0.99444580078125,[0. 0. 0. 0. 0. 0. 0. 0. 0.],-0.00390625,-0.001953125,0.0,[0. 0. 0. 0. 0. 0. 0. 0. 0.],-2.0703125,-0.421875,9.578125,[0. 0. 0. 0. 0. 0. 0. 0. 0.]
1742663969380118446,1742663969,363381261,imu_link,-0.01904296875,0.1033935546875,-0.0003662109375,0.99444580078125,[0. 0. 0. 0. 0. 0. 0. 0. 0.],-0.00390625,-0.001953125,0.0,[0. 0. 0. 0. 0. 0. 0. 0. 0.],-2.0703125,-0.3828125,9.54296875,[0. 0. 0. 0. 0. 0. 0. 0. 0.]
1742663969385093066,1742663969,383327371,imu_link,-0.01904296875,0.1033935546875,-0.0003662109375,0.99444580078125,[0. 0. 0. 0. 0. 0. 0. 0. 0.],-0.00390625,-0.001953125,0.0,[0. 0. 0. 0. 0. 0. 0. 0. 0.],-2.0703125,-0.3828125,9.54296875,[0. 0. 0. 0. 0. 0. 0. 0. 0.]
1742663969420898707,1742663969,404586081,imu_link,-0.01910400390625,0.10345458984375,-0.0003662109375,0.99444580078125,[0. 0. 0. 0. 0. 0. 0. 0. 0.],-0.0078125,0.001953125,-0.001953125,[0. 0. 0. 0. 0. 0. 0. 0. 0.],-2.03125,-0.421875,9.58203125,[0. 0. 0. 0. 0. 0. 0. 0. 0.]
1742663969425327806,1742663969,423514389,imu_link,-0.01910400390625,0.10345458984375,-0.0003662109375,0.99444580078125,[0. 0. 0. 0. 0. 0. 0. 0. 0.],-0.0078125,0.001953125,-0.001953125,[0. 0. 0. 0. 0. 0. 0. 0. 0.],-2.03125,-0.421875,9.58203125,[0. 0. 0. 0. 0. 0. 0. 0. 0.]
1742663969454280169,1742663969,443555369,imu_link,-0.01910400390625,0.10345458984375,-0.0003662109375,0.99444580078125,[0. 0. 0. 0. 0. 0. 0. 0. 0.],-0.01171875,-0.001953125,0.00390625,[0. 0. 0. 0. 0. 0. 0. 0. 0.],-1.953125,-0.3046875,9.54296875,[0. 0. 0. 0. 0. 0. 0. 0. 0.]
1742663969476224568,1742663969,463339608,imu_link,-0.01922607421875,0.10345458984375,-0.0003662109375,0.99444580078125,[0. 0. 0. 0. 0. 0. 0. 0. 0.],-0.01171875,-0.001953125,0.00390625,[0. 0. 0. 0. 0. 0. 0. 0. 0.],-1.83984375,-0.34375,9.50390625,[0. 0. 0. 0. 0. 0. 0. 0. 0.]
1742663969485175228,1742663969,483350811,imu_link,-0.01922607421875,0.10345458984375,-0.0003662109375,0.99444580078125,[0. 0. 0. 0. 0. 0. 0. 0. 0.],-0.01171875,-0.001953125,0.00390625,[0. 0. 0. 0. 0. 0. 0. 0. 0.],-1.83984375,-0.34375,9.50390625,[0. 0. 0. 0. 0. 0. 0. 0. 0.]
1742663969519678622,1742663969,503383792,imu_link,-0.01922607421875,0.1033935546875,-0.00042724609375,0.99444580078125,[0. 0. 0. 0. 0. 0. 0. 0. 0.],-0.009765625,-0.00390625,-0.00390625,[0. 0. 0. 0. 0. 0. 0. 0. 0.],-1.87890625,-0.3828125,9.6484375,[0. 0. 0. 0. 0. 0. 0. 0. 0.]
1742663969525218319,1742663969,523365346,imu_link,-0.01922607421875,0.1033935546875,-0.00042724609375,0.99444580078125,[0. 0. 0. 0. 0. 0. 0. 0. 0.],-0.009765625,-0.00390625,-0.00390625,[0. 0. 0. 0. 0. 0. 0. 0. 0.],-1.87890625,-0.3828125,9.6484375,[0. 0. 0. 0. 0. 0. 0. 0. 0.]
1742663969554657093,1742663969,544202461,imu_link,-0.01922607421875,0.1033935546875,-0.00042724609375,0.99444580078125,[0. 0. 0. 0. 0. 0. 0. 0. 0.],-0.005859375,0.00390625,0.00390625,[0. 0. 0. 0. 0. 0. 0. 0. 0.],-1.953125,-0.421875,9.609375,[0. 0. 0. 0. 0. 0. 0. 0. 0.]
1742663969571098276,1742663969,567688016,imu_link,-0.0191650390625,0.1033935546875,-0.00030517578125,0.99444580078125,[0. 0. 0. 0. 0. 0. 0. 0. 0.],-0.005859375,0.00390625,0.00390625,[0. 0. 0. 0. 0. 0. 0. 0. 0.],-2.14453125,-0.3828125,9.5390625,[0. 0. 0. 0. 0. 0. 0. 0. 0.]
1742663969585262280,1742663969,583372399,imu_link,-0.0191650390625,0.1033935546875,-0.00030517578125,0.99444580078125,[0. 0. 0. 0. 0. 0. 0. 0. 0.],-0.005859375,0.00390625,0.00390625,[0. 0. 0. 0. 0. 0. 0. 0. 0.],-2.14453125,-0.3828125,9.5390625,[0. 0. 0. 0. 0. 0. 0. 0. 0.]
1742663969605173778,1742663969,603351972,imu_link,-0.0191650390625,0.1033935546875,-0.00030517578125,0.99444580078125,[0. 0. 0. 0. 0. 0. 0. 0. 0.],-0.00390625,-0.001953125,0.0,[0. 0. 0. 0. 0. 0. 0. 0. 0.],-2.10546875,-0.3828125,9.58203125,[0. 0. 0. 0. 0. 0. 0. 0. 0.]
1742663969630035582,1742663969,623361545,imu_link,-0.01898193359375,0.103271484375,-0.00030517578125,0.99444580078125,[0. 0. 0. 0. 0. 0. 0. 0. 0.],-0.00390625,-0.001953125,0.0,[0. 0. 0. 0. 0. 0. 0. 0. 0.],-2.10546875,-0.421875,9.578125,[0. 0. 0. 0. 0. 0. 0. 0. 0.]
1742663969650292323,1742663969,643481619,imu_link,-0.01898193359375,0.103271484375,-0.00030517578125,0.99444580078125,[0. 0. 0. 0. 0. 0. 0. 0. 0.],0.001953125,-0.001953125,0.005859375,[0. 0. 0. 0. 0. 0. 0. 0. 0.],-2.10546875,-0.421875,9.578125,[0. 0. 0. 0. 0. 0. 0. 0. 0.]
1742663969675837853,1742663969,663362118,imu_link,-0.01885986328125,0.1031494140625,-0.000244140625,0.9945068359375,[0. 0. 0. 0. 0. 0. 0. 0. 0.],0.001953125,-0.001953125,0.005859375,[0. 0. 0. 0. 0. 0. 0. 0. 0.],-2.0703125,-0.34375,9.54296875,[0. 0. 0. 0. 0. 0. 0. 0. 0.]
1742663969685133312,1742663969,683320413,imu_link,-0.01885986328125,0.1031494140625,-0.000244140625,0.9945068359375,[0. 0. 0. 0. 0. 0. 0. 0. 0.],0.001953125,-0.001953125,0.005859375,[0. 0. 0. 0. 0. 0. 0. 0. 0.],-2.0703125,-0.34375,9.54296875,[0. 0. 0. 0. 0. 0. 0. 0. 0.]
1742663969705165774,1742663969,703354597,imu_link,-0.01885986328125,0.1031494140625,-0.000244140625,0.9945068359375,[0. 0. 0. 0. 0. 0. 0. 0. 0.],0.00390625,-0.00390625,0.005859375,[0. 0. 0. 0. 0. 0. 0. 0. 0.],-2.0703125,-0.3828125,9.58203125,[0. 0. 0. 0. 0. 0. 0. 0. 0.]
1742663969730185689,1742663969,723428949,imu_link,-0.01873779296875,0.10308837890625,-0.0001220703125,0.9945068359375,[0. 0. 0. 0. 0. 0. 0. 0. 0.],0.00390625,-0.00390625,0.005859375,[0. 0. 0. 0. 0. 0. 0. 0. 0.],-2.03125,-0.34375,9.61328125,[0. 0. 0. 0. 0. 0. 0. 0. 0.]
1742663969753200390,1742663969,743434707,imu_link,-0.01873779296875,0.10308837890625,-0.0001220703125,0.9945068359375,[0. 0. 0. 0. 0. 0. 0. 0. 0.],0.0,0.0,-0.001953125,[0. 0. 0. 0. 0. 0. 0. 0. 0.],-2.03125,-0.34375,9.61328125,[0. 0. 0. 0. 0. 0. 0. 0. 0.]
1742663969775005473,1742663969,763358280,imu_link,-0.01873779296875,0.10308837890625,-0.0001220703125,0.9945068359375,[0. 0. 0. 0. 0. 0. 0. 0. 0.],0.0,0.0,-0.001953125,[0. 0. 0. 0. 0. 0. 0. 0. 0.],-2.0703125,-0.34375,9.54296875,[0. 0. 0. 0. 0. 0. 0. 0. 0.]
1742663969794553303,1742663969,783324686,imu_link,-0.01873779296875,0.10308837890625,-0.0001220703125,0.9945068359375,[0. 0. 0. 0. 0. 0. 0. 0. 0.],0.001953125,-0.001953125,0.0,[0. 0. 0. 0. 0. 0. 0. 0. 0.],-2.0703125,-0.3828125,9.58203125,[0. 0. 0. 0. 0. 0. 0. 0. 0.]
1742663969805349215,1742663969,803419482,imu_link,-0.01873779296875,0.10308837890625,-0.0001220703125,0.9945068359375,[0. 0. 0. 0. 0. 0. 0. 0. 0.],0.001953125,-0.001953125,0.0,[0. 0. 0. 0. 0. 0. 0. 0. 0.],-2.0703125,-0.3828125,9.58203125,[0. 0. 0. 0. 0. 0. 0. 0. 0.]
1742663969825155676,1742663969,823332943,imu_link,-0.01873779296875,0.10308837890625,-6.103515625e-05,0.9945068359375,[0. 0. 0. 0. 0. 0. 0. 0. 0.],0.001953125,-0.001953125,0.0,[0. 0. 0. 0. 0. 0. 0. 0. 0.],-2.18359375,-0.34375,9.61328125,[0. 0. 0. 0. 0. 0. 0. 0. 0.]
1742663969853590610,1742663969,843450795,imu_link,-0.01873779296875,0.10308837890625,-6.103515625e-05,0.9945068359375,[0. 0. 0. 0. 0. 0. 0. 0. 0.],-0.001953125,0.0,-0.005859375,[0. 0. 0. 0. 0. 0. 0. 0. 0.],-2.18359375,-0.34375,9.4609375,[0. 0. 0. 0. 0. 0. 0. 0. 0.]
1742663969875131081,1742663969,863540850,imu_link,-0.018798828125,0.10321044921875,-0.00018310546875,0.9945068359375,[0. 0. 0. 0. 0. 0. 0. 0. 0.],-0.001953125,0.0,-0.005859375,[0. 0. 0. 0. 0. 0. 0. 0. 0.],-2.18359375,-0.34375,9.4609375,[0. 0. 0. 0. 0. 0. 0. 0. 0.]
1742663969889597383,1742663969,883330107,imu_link,-0.018798828125,0.10321044921875,-0.00018310546875,0.9945068359375,[0. 0. 0. 0. 0. 0. 0. 0. 0.],-0.0078125,0.001953125,0.00390625,[0. 0. 0. 0. 0. 0. 0. 0. 0.],-2.10546875,-0.34375,9.6484375,[0. 0. 0. 0. 0. 0. 0. 0. 0.]
1742663969917134849,1742663969,903583200,imu_link,-0.018798828125,0.10333251953125,-0.0001220703125,0.99444580078125,[0. 0. 0. 0. 0. 0. 0. 0. 0.],-0.0078125,0.001953125,0.00390625,[0. 0. 0. 0. 0. 0. 0. 0. 0.],-2.10546875,-0.34375,9.6484375,[0. 0. 0. 0. 0. 0. 0. 0. 0.]
1742663969925084337,1742663969,923320865,imu_link,-0.018798828125,0.10333251953125,-0.0001220703125,0.99444580078125,[0. 0. 0. 0. 0. 0. 0. 0. 0.],-0.0078125,0.001953125,0.00390625,[0. 0. 0. 0. 0. 0. 0. 0. 0.],-2.03125,-0.421875,9.50390625,[0. 0. 0. 0. 0. 0. 0. 0. 0.]
1742663969953362308,1742663969,943471883,imu_link,-0.018798828125,0.10333251953125,-0.0001220703125,0.99444580078125,[0. 0. 0. 0. 0. 0. 0. 0. 0.],-0.0078125,-0.00390625,-0.001953125,[0. 0. 0. 0. 0. 0. 0. 0. 0.],-1.9140625,-0.34375,9.61328125,[0. 0. 0. 0. 0. 0. 0. 0. 0.]
1742663969979522489,1742663969,963383808,imu_link,-0.018798828125,0.10345458984375,-0.0001220703125,0.99444580078125,[0. 0. 0. 0. 0. 0. 0. 0. 0.],-0.0078125,-0.00390625,-0.001953125,[0. 0. 0. 0. 0. 0. 0. 0. 0.],-1.609375,-0.421875,9.54296875,[0. 0. 0. 0. 0. 0. 0. 0. 0.]
1742663969990381901,1742663969,983333344,imu_link,-0.018798828125,0.10345458984375,-0.0001220703125,0.99444580078125,[0. 0. 0. 0. 0. 0. 0. 0. 0.],-0.015625,-0.005859375,0.001953125,[0. 0. 0. 0. 0. 0. 0. 0. 0.],-1.609375,-0.421875,9.54296875,[0. 0. 0. 0. 0. 0. 0. 0. 0.]
1742663970017708107,1742663970,3422954,imu_link,-0.018798828125,0.10357666015625,-6.103515625e-05,0.99444580078125,[0. 0. 0. 0. 0. 0. 0. 0. 0.],-0.015625,-0.005859375,0.001953125,[0. 0. 0. 0. 0. 0. 0. 0. 0.],-1.609375,-0.3828125,9.61328125,[0. 0. 0. 0. 0. 0. 0. 0. 0.]
1742663970027963534,1742663970,24441700,imu_link,-0.018798828125,0.10357666015625,-6.103515625e-05,0.99444580078125,[0. 0. 0. 0. 0. 0. 0. 0. 0.],-0.015625,-0.005859375,0.001953125,[0. 0. 0. 0. 0. 0. 0. 0. 0.],-1.609375,-0.3828125,9.61328125,[0. 0. 0. 0. 0. 0. 0. 0. 0.]
1742663970053424841,1742663970,43449267,imu_link,-0.018798828125,0.10357666015625,-6.103515625e-05,0.99444580078125,[0. 0. 0. 0. 0. 0. 0. 0. 0.],-0.009765625,-0.001953125,0.00390625,[0. 0. 0. 0. 0. 0. 0. 0. 0.],-1.76171875,-0.34375,9.69140625,[0. 0. 0. 0. 0. 0. 0. 0. 0.]
1742663970072461131,1742663970,64996330,imu_link,-0.01873779296875,0.10369873046875,6.103515625e-05,0.99444580078125,[0. 0. 0. 0. 0. 0. 0. 0. 0.],-0.009765625,-0.001953125,0.00390625,[0. 0. 0. 0. 0. 0. 0. 0. 0.],-1.76171875,-0.34375,9.69140625,[0. 0. 0. 0. 0. 0. 0. 0. 0.]
1742663970090451730,1742663970,83572562,imu_link,-0.01873779296875,0.10369873046875,6.103515625e-05,0.99444580078125,[0. 0. 0. 0. 0. 0. 0. 0. 0.],-0.005859375,0.001953125,-0.005859375,[0. 0. 0. 0. 0. 0. 0. 0. 0.],-1.953125,-0.3828125,9.4609375,[0. 0. 0. 0. 0. 0. 0. 0. 0.]
1742663970119803355,1742663970,103421838,imu_link,-0.0186767578125,0.1036376953125,0.0,0.99444580078125,[0. 0. 0. 0. 0. 0. 0. 0. 0.],-0.005859375,0.001953125,-0.005859375,[0. 0. 0. 0. 0. 0. 0. 0. 0.],-2.0703125,-0.3828125,9.609375,[0. 0. 0. 0. 0. 0. 0. 0. 0.]
1742663970125099328,1742663970,123327244,imu_link,-0.0186767578125,0.1036376953125,0.0,0.99444580078125,[0. 0. 0. 0. 0. 0. 0. 0. 0.],-0.005859375,0.001953125,-0.005859375,[0. 0. 0. 0. 0. 0. 0. 0. 0.],-2.0703125,-0.3828125,9.609375,[0. 0. 0. 0. 0. 0. 0. 0. 0.]
1742663970166094684,1742663970,144429768,imu_link,-0.0185546875,0.10345458984375,0.0,0.99444580078125,[0. 0. 0. 0. 0. 0. 0. 0. 0.],0.0,0.001953125,0.005859375,[0. 0. 0. 0. 0. 0. 0. 0. 0.],-2.0703125,-0.3828125,9.54296875,[0. 0. 0. 0. 0. 0. 0. 0. 0.]
1742663970172226792,1742663970,168797273,imu_link,-0.0185546875,0.10345458984375,0.0,0.99444580078125,[0. 0. 0. 0. 0. 0. 0. 0. 0.],0.0,0.001953125,0.005859375,[0. 0. 0. 0. 0. 0. 0. 0. 0.],-2.14453125,-0.3046875,9.58203125,[0. 0. 0. 0. 0. 0. 0. 0. 0.]
1742663970190030927,1742663970,183357279,imu_link,-0.0185546875,0.10345458984375,0.0,0.99444580078125,[0. 0. 0. 0. 0. 0. 0. 0. 0.],0.005859375,-0.001953125,-0.005859375,[0. 0. 0. 0. 0. 0. 0. 0. 0.],-2.14453125,-0.3046875,9.58203125,[0. 0. 0. 0. 0. 0. 0. 0. 0.]
1742663970217365262,1742663970,204578507,imu_link,-0.01837158203125,0.10321044921875,-0.0001220703125,0.9945068359375,[0. 0. 0. 0. 0. 0. 0. 0. 0.],0.005859375,-0.001953125,-0.005859375,[0. 0. 0. 0. 0. 0. 0. 0. 0.],-2.18359375,-0.34375,9.578125,[0. 0. 0. 0. 0. 0. 0. 0. 0.]
1742663970232844385,1742663970,224860563,imu_link,-0.01837158203125,0.10321044921875,-0.0001220703125,0.9945068359375,[0. 0. 0. 0. 0. 0. 0. 0. 0.],0.005859375,-0.001953125,-0.005859375,[0. 0. 0. 0. 0. 0. 0. 0. 0.],-2.14453125,-0.3828125,9.5390625,[0. 0. 0. 0. 0. 0. 0. 0. 0.]
1742663970250206703,1742663970,243445943,imu_link,-0.01837158203125,0.10321044921875,-0.0001220703125,0.9945068359375,[0. 0. 0. 0. 0. 0. 0. 0. 0.],0.009765625,-0.001953125,0.00390625,[0. 0. 0. 0. 0. 0. 0. 0. 0.],-2.14453125,-0.3828125,9.5390625,[0. 0. 0. 0. 0. 0. 0. 0. 0.]
1742663970277178703,1742663970,263434942,imu_link,-0.01824951171875,0.10296630859375,-0.00018310546875,0.9945068359375,[0. 0. 0. 0. 0. 0. 0. 0. 0.],0.009765625,-0.001953125,0.00390625,[0. 0. 0. 0. 0. 0. 0. 0. 0.],-2.10546875,-0.34375,9.58203125,[0. 0. 0. 0. 0. 0. 0. 0. 0.]
1742663970293519423,1742663970,283363404,imu_link,-0.01824951171875,0.10296630859375,-0.00018310546875,0.9945068359375,[0. 0. 0. 0. 0. 0. 0. 0. 0.],0.01171875,-0.005859375,-0.001953125,[0. 0. 0. 0. 0. 0. 0. 0. 0.],-2.10546875,-0.34375,9.58203125,[0. 0. 0. 0. 0. 0. 0. 0. 0.]
1742663970316104047,1742663970,303386218,imu_link,-0.01812744140625,0.10284423828125,-0.00018310546875,0.9945068359375,[0. 0. 0. 0. 0. 0. 0. 0. 0.],0.01171875,-0.005859375,-0.001953125,[0. 0. 0. 0. 0. 0. 0. 0. 0.],-2.10546875,-0.34375,9.54296875,[0. 0. 0. 0. 0. 0. 0. 0. 0.]
1742663970325770489,1742663970,323338568,imu_link,-0.01812744140625,0.10284423828125,-0.00018310546875,0.9945068359375,[0. 0. 0. 0. 0. 0. 0. 0. 0.],0.01171875,-0.005859375,-0.001953125,[0. 0. 0. 0. 0. 0. 0. 0. 0.],-2.10546875,-0.3046875,9.65234375,[0. 0. 0. 0. 0. 0. 0. 0. 0.]
1742663970353984200,1742663970,343452531,imu_link,-0.01812744140625,0.10284423828125,-0.00018310546875,0.9945068359375,[0. 0. 0. 0. 0. 0. 0. 0. 0.],0.009765625,-0.00390625,0.005859375,[0. 0. 0. 0. 0. 0. 0. 0. 0.],-1.9921875,-0.3828125,9.578125,[0. 0. 0. 0. 0. 0. 0. 0. 0.]
1742663970369791917,1742663970,366290064,imu_link,-0.01812744140625,0.102783203125,-0.00018310546875,0.99456787109375,[0. 0. 0. 0. 0. 0. 0. 0. 0.],0.009765625,-0.00390625,0.005859375,[0. 0. 0. 0. 0. 0. 0. 0. 0.],-1.9921875,-0.3828125,9.578125,[0. 0. 0. 0. 0. 0. 0. 0. 0.]
1742663970393970458,1742663970,383443011,imu_link,-0.01812744140625,0.102783203125,-0.00018310546875,0.99456787109375,[0. 0. 0. 0. 0. 0. 0. 0. 0.],0.0078125,-0.001953125,-0.005859375,[0. 0. 0. 0. 0. 0. 0. 0. 0.],-1.87890625,-0.3046875,9.5390625,[0. 0. 0. 0. 0. 0. 0. 0. 0.]
