timestamp,header.stamp.sec,header.stamp.nanosec,header.frame_id,orientation.x,orientation.y,orientation.z,orientation.w,orientation_covariance,angular_velocity.x,angular_velocity.y,angular_velocity.z,angular_velocity_covariance,linear_acceleration.x,linear_acceleration.y,linear_acceleration.z,linear_acceleration_covariance
1742662962071235586,1742662962,56159438,imu_link,-0.01666259765625,0.09918212890625,-0.001220703125,0.99493408203125,[0. 0. 0. 0. 0. 0. 0. 0. 0.],0.0,0.0,0.0,[0. 0. 0. 0. 0. 0. 0. 0. 0.],-1.9140625,-0.3046875,9.58203125,[0. 0. 0. 0. 0. 0. 0. 0. 0.]
1742662962079115553,1742662962,75477258,imu_link,-0.01666259765625,0.09918212890625,-0.001220703125,0.99493408203125,[0. 0. 0. 0. 0. 0. 0. 0. 0.],0.0,0.0,0.0,[0. 0. 0. 0. 0. 0. 0. 0. 0.],-1.9140625,-0.3046875,9.58203125,[0. 0. 0. 0. 0. 0. 0. 0. 0.]
1742662962116295068,1742662962,95428936,imu_link,-0.01666259765625,0.09918212890625,-0.001220703125,0.99493408203125,[0. 0. 0. 0. 0. 0. 0. 0. 0.],0.0,0.0,0.0,[0. 0. 0. 0. 0. 0. 0. 0. 0.],-1.953125,-0.34375,9.578125,[0. 0. 0. 0. 0. 0. 0. 0. 0.]
1742662962126209554,1742662962,122873799,imu_link,-0.01666259765625,0.09918212890625,-0.001220703125,0.99493408203125,[0. 0. 0. 0. 0. 0. 0. 0. 0.],0.0,0.0,0.0,[0. 0. 0. 0. 0. 0. 0. 0. 0.],-1.9140625,-0.3046875,9.54296875,[0. 0. 0. 0. 0. 0. 0. 0. 0.]
1742662962142088674,1742662962,135402793,imu_link,-0.01666259765625,0.09918212890625,-0.001220703125,0.99493408203125,[0. 0. 0. 0. 0. 0. 0. 0. 0.],0.0,0.0,0.0,[0. 0. 0. 0. 0. 0. 0. 0. 0.],-1.9140625,-0.3046875,9.54296875,[0. 0. 0. 0. 0. 0. 0. 0. 0.]
1742662962169294831,1742662962,155386250,imu_link,-0.01666259765625,0.0992431640625,-0.001220703125,0.99493408203125,[0. 0. 0. 0. 0. 0. 0. 0. 0.],0.0,0.0,0.0,[0. 0. 0. 0. 0. 0. 0. 0. 0.],-1.9140625,-0.34375,9.578125,[0. 0. 0. 0. 0. 0. 0. 0. 0.]
1742662962178974075,1742662962,175511744,imu_link,-0.01666259765625,0.0992431640625,-0.001220703125,0.99493408203125,[0. 0. 0. 0. 0. 0. 0. 0. 0.],0.0,0.0,0.0,[0. 0. 0. 0. 0. 0. 0. 0. 0.],-1.9140625,-0.34375,9.578125,[0. 0. 0. 0. 0. 0. 0. 0. 0.]
1742662962220245223,1742662962,195392200,imu_link,-0.01666259765625,0.0992431640625,-0.001220703125,0.99493408203125,[0. 0. 0. 0. 0. 0. 0. 0. 0.],0.0,0.0,0.0,[0. 0. 0. 0. 0. 0. 0. 0. 0.],-1.9140625,-0.34375,9.578125,[0. 0. 0. 0. 0. 0. 0. 0. 0.]
1742662962224778897,1742662962,221853738,imu_link,-0.01666259765625,0.0992431640625,-0.001220703125,0.99493408203125,[0. 0. 0. 0. 0. 0. 0. 0. 0.],0.0,0.0,0.0,[0. 0. 0. 0. 0. 0. 0. 0. 0.],-1.9140625,-0.34375,9.578125,[0. 0. 0. 0. 0. 0. 0. 0. 0.]
1742662962241895066,1742662962,235385946,imu_link,-0.01666259765625,0.0992431640625,-0.001220703125,0.99493408203125,[0. 0. 0. 0. 0. 0. 0. 0. 0.],0.0,0.0,0.0,[0. 0. 0. 0. 0. 0. 0. 0. 0.],-1.9140625,-0.34375,9.578125,[0. 0. 0. 0. 0. 0. 0. 0. 0.]
1742662962269294706,1742662962,255385273,imu_link,-0.01666259765625,0.0992431640625,-0.001220703125,0.99493408203125,[0. 0. 0. 0. 0. 0. 0. 0. 0.],0.0,0.0,0.0,[0. 0. 0. 0. 0. 0. 0. 0. 0.],-1.953125,-0.34375,9.578125,[0. 0. 0. 0. 0. 0. 0. 0. 0.]
1742662962288273227,1742662962,275300543,imu_link,-0.01666259765625,0.0992431640625,-0.001220703125,0.99493408203125,[0. 0. 0. 0. 0. 0. 0. 0. 0.],0.0,0.0,0.0,[0. 0. 0. 0. 0. 0. 0. 0. 0.],-1.953125,-0.3046875,9.58203125,[0. 0. 0. 0. 0. 0. 0. 0. 0.]
1742662962298610903,1742662962,295300889,imu_link,-0.01666259765625,0.0992431640625,-0.001220703125,0.99493408203125,[0. 0. 0. 0. 0. 0. 0. 0. 0.],0.0,0.0,0.0,[0. 0. 0. 0. 0. 0. 0. 0. 0.],-1.953125,-0.3046875,9.58203125,[0. 0. 0. 0. 0. 0. 0. 0. 0.]
1742662962330659015,1742662962,315331086,imu_link,-0.01666259765625,0.09930419921875,-0.001220703125,0.99493408203125,[0. 0. 0. 0. 0. 0. 0. 0. 0.],0.0,0.0,0.0,[0. 0. 0. 0. 0. 0. 0. 0. 0.],-1.9140625,-0.3046875,9.58203125,[0. 0. 0. 0. 0. 0. 0. 0. 0.]
1742662962343642292,1742662962,337476157,imu_link,-0.01666259765625,0.09930419921875,-0.001220703125,0.99493408203125,[0. 0. 0. 0. 0. 0. 0. 0. 0.],0.0,0.0,0.0,[0. 0. 0. 0. 0. 0. 0. 0. 0.],-1.9140625,-0.34375,9.578125,[0. 0. 0. 0. 0. 0. 0. 0. 0.]
1742662962368594482,1742662962,355493686,imu_link,-0.01666259765625,0.09930419921875,-0.001220703125,0.99493408203125,[0. 0. 0. 0. 0. 0. 0. 0. 0.],0.0,0.0,0.0,[0. 0. 0. 0. 0. 0. 0. 0. 0.],-1.9140625,-0.34375,9.578125,[0. 0. 0. 0. 0. 0. 0. 0. 0.]
1742662962379110975,1742662962,375342660,imu_link,-0.01666259765625,0.09930419921875,-0.001220703125,0.99493408203125,[0. 0. 0. 0. 0. 0. 0. 0. 0.],0.0,0.0,0.0,[0. 0. 0. 0. 0. 0. 0. 0. 0.],-1.9140625,-0.34375,9.578125,[0. 0. 0. 0. 0. 0. 0. 0. 0.]
1742662962402042201,1742662962,395449025,imu_link,-0.01666259765625,0.09930419921875,-0.001220703125,0.99493408203125,[0. 0. 0. 0. 0. 0. 0. 0. 0.],0.0,0.0,0.0,[0. 0. 0. 0. 0. 0. 0. 0. 0.],-1.9140625,-0.34375,9.578125,[0. 0. 0. 0. 0. 0. 0. 0. 0.]
1742662962418780514,1742662962,415483796,imu_link,-0.0166015625,0.09930419921875,-0.001220703125,0.99493408203125,[0. 0. 0. 0. 0. 0. 0. 0. 0.],0.0,0.0,0.0,[0. 0. 0. 0. 0. 0. 0. 0. 0.],-1.953125,-0.34375,9.578125,[0. 0. 0. 0. 0. 0. 0. 0. 0.]
1742662962446769605,1742662962,435393326,imu_link,-0.0166015625,0.09930419921875,-0.001220703125,0.99493408203125,[0. 0. 0. 0. 0. 0. 0. 0. 0.],0.0,0.0,0.0,[0. 0. 0. 0. 0. 0. 0. 0. 0.],-1.953125,-0.34375,9.578125,[0. 0. 0. 0. 0. 0. 0. 0. 0.]
1742662962471572516,1742662962,455349616,imu_link,-0.0166015625,0.09930419921875,-0.001220703125,0.99493408203125,[0. 0. 0. 0. 0. 0. 0. 0. 0.],0.0,0.0,0.0,[0. 0. 0. 0. 0. 0. 0. 0. 0.],-1.9140625,-0.3046875,9.58203125,[0. 0. 0. 0. 0. 0. 0. 0. 0.]
1742662962478678809,1742662962,475296109,imu_link,-0.0166015625,0.09930419921875,-0.001220703125,0.99493408203125,[0. 0. 0. 0. 0. 0. 0. 0. 0.],0.0,0.0,0.0,[0. 0. 0. 0. 0. 0. 0. 0. 0.],-1.9140625,-0.3046875,9.58203125,[0. 0. 0. 0. 0. 0. 0. 0. 0.]
1742662962515827119,1742662962,495419770,imu_link,-0.01666259765625,0.09930419921875,-0.001220703125,0.99493408203125,[0. 0. 0. 0. 0. 0. 0. 0. 0.],0.0,0.0,0.0,[0. 0. 0. 0. 0. 0. 0. 0. 0.],-1.9140625,-0.34375,9.578125,[0. 0. 0. 0. 0. 0. 0. 0. 0.]
1742662962520211533,1742662962,518454553,imu_link,-0.01666259765625,0.09930419921875,-0.001220703125,0.99493408203125,[0. 0. 0. 0. 0. 0. 0. 0. 0.],0.0,0.0,0.0,[0. 0. 0. 0. 0. 0. 0. 0. 0.],-1.9140625,-0.34375,9.578125,[0. 0. 0. 0. 0. 0. 0. 0. 0.]
1742662962546787536,1742662962,535382275,imu_link,-0.01666259765625,0.09930419921875,-0.001220703125,0.99493408203125,[0. 0. 0. 0. 0. 0. 0. 0. 0.],0.0,0.0,0.0,[0. 0. 0. 0. 0. 0. 0. 0. 0.],-1.953125,-0.34375,9.578125,[0. 0. 0. 0. 0. 0. 0. 0. 0.]
1742662962568647844,1742662962,555308694,imu_link,-0.01666259765625,0.09930419921875,-0.001220703125,0.99493408203125,[0. 0. 0. 0. 0. 0. 0. 0. 0.],0.0,0.0,0.0,[0. 0. 0. 0. 0. 0. 0. 0. 0.],-1.953125,-0.34375,9.578125,[0. 0. 0. 0. 0. 0. 0. 0. 0.]
1742662962578824778,1742662962,575392985,imu_link,-0.01666259765625,0.09930419921875,-0.001220703125,0.99493408203125,[0. 0. 0. 0. 0. 0. 0. 0. 0.],0.0,0.0,0.0,[0. 0. 0. 0. 0. 0. 0. 0. 0.],-1.953125,-0.34375,9.578125,[0. 0. 0. 0. 0. 0. 0. 0. 0.]
1742662962616215295,1742662962,595379034,imu_link,-0.01666259765625,0.09930419921875,-0.001220703125,0.99493408203125,[0. 0. 0. 0. 0. 0. 0. 0. 0.],0.0,0.0,0.0,[0. 0. 0. 0. 0. 0. 0. 0. 0.],-1.953125,-0.34375,9.578125,[0. 0. 0. 0. 0. 0. 0. 0. 0.]
1742662962620674542,1742662962,618773376,imu_link,-0.01666259765625,0.09930419921875,-0.001220703125,0.99493408203125,[0. 0. 0. 0. 0. 0. 0. 0. 0.],0.0,0.0,0.0,[0. 0. 0. 0. 0. 0. 0. 0. 0.],-1.953125,-0.34375,9.578125,[0. 0. 0. 0. 0. 0. 0. 0. 0.]
1742662962646764800,1742662962,635360724,imu_link,-0.01666259765625,0.09930419921875,-0.001220703125,0.99493408203125,[0. 0. 0. 0. 0. 0. 0. 0. 0.],0.0,0.0,0.0,[0. 0. 0. 0. 0. 0. 0. 0. 0.],-1.953125,-0.34375,9.578125,[0. 0. 0. 0. 0. 0. 0. 0. 0.]
1742662962668601015,1742662962,655327310,imu_link,-0.01666259765625,0.09930419921875,-0.001220703125,0.99493408203125,[0. 0. 0. 0. 0. 0. 0. 0. 0.],0.0,0.0,0.0,[0. 0. 0. 0. 0. 0. 0. 0. 0.],-1.9140625,-0.3046875,9.58203125,[0. 0. 0. 0. 0. 0. 0. 0. 0.]
1742662962679020322,1742662962,675552806,imu_link,-0.01666259765625,0.09930419921875,-0.001220703125,0.99493408203125,[0. 0. 0. 0. 0. 0. 0. 0. 0.],0.0,0.0,0.0,[0. 0. 0. 0. 0. 0. 0. 0. 0.],-1.9140625,-0.3046875,9.58203125,[0. 0. 0. 0. 0. 0. 0. 0. 0.]
1742662962715641479,1742662962,695359983,imu_link,-0.0167236328125,0.099365234375,-0.001220703125,0.99493408203125,[0. 0. 0. 0. 0. 0. 0. 0. 0.],0.0,0.0,0.0,[0. 0. 0. 0. 0. 0. 0. 0. 0.],-1.953125,-0.34375,9.578125,[0. 0. 0. 0. 0. 0. 0. 0. 0.]
1742662962725078109,1742662962,721684742,imu_link,-0.0167236328125,0.099365234375,-0.001220703125,0.99493408203125,[0. 0. 0. 0. 0. 0. 0. 0. 0.],0.0,0.0,0.0,[0. 0. 0. 0. 0. 0. 0. 0. 0.],-1.9140625,-0.34375,9.578125,[0. 0. 0. 0. 0. 0. 0. 0. 0.]
1742662962741771829,1742662962,735304932,imu_link,-0.0167236328125,0.099365234375,-0.001220703125,0.99493408203125,[0. 0. 0. 0. 0. 0. 0. 0. 0.],0.0,0.0,0.0,[0. 0. 0. 0. 0. 0. 0. 0. 0.],-1.9140625,-0.34375,9.578125,[0. 0. 0. 0. 0. 0. 0. 0. 0.]
1742662962768649946,1742662962,755381149,imu_link,-0.0167236328125,0.099365234375,-0.001220703125,0.99493408203125,[0. 0. 0. 0. 0. 0. 0. 0. 0.],0.0,0.0,0.0,[0. 0. 0. 0. 0. 0. 0. 0. 0.],-1.9140625,-0.34375,9.578125,[0. 0. 0. 0. 0. 0. 0. 0. 0.]
1742662962778818861,1742662962,775384957,imu_link,-0.0167236328125,0.099365234375,-0.001220703125,0.99493408203125,[0. 0. 0. 0. 0. 0. 0. 0. 0.],0.0,0.0,0.0,[0. 0. 0. 0. 0. 0. 0. 0. 0.],-1.9140625,-0.34375,9.578125,[0. 0. 0. 0. 0. 0. 0. 0. 0.]
1742662962818839719,1742662962,795398099,imu_link,-0.01678466796875,0.099365234375,-0.001220703125,0.99493408203125,[0. 0. 0. 0. 0. 0. 0. 0. 0.],0.0,0.0,0.0,[0. 0. 0. 0. 0. 0. 0. 0. 0.],-1.953125,-0.3046875,9.58203125,[0. 0. 0. 0. 0. 0. 0. 0. 0.]
1742662962824333959,1742662962,820550940,imu_link,-0.01678466796875,0.099365234375,-0.001220703125,0.99493408203125,[0. 0. 0. 0. 0. 0. 0. 0. 0.],0.0,0.0,0.0,[0. 0. 0. 0. 0. 0. 0. 0. 0.],-1.9140625,-0.3046875,9.58203125,[0. 0. 0. 0. 0. 0. 0. 0. 0.]
1742662962841070216,1742662962,835302104,imu_link,-0.01678466796875,0.099365234375,-0.001220703125,0.99493408203125,[0. 0. 0. 0. 0. 0. 0. 0. 0.],0.0,0.0,0.0,[0. 0. 0. 0. 0. 0. 0. 0. 0.],-1.9140625,-0.3046875,9.58203125,[0. 0. 0. 0. 0. 0. 0. 0. 0.]
1742662962868601414,1742662962,855360913,imu_link,-0.01678466796875,0.099365234375,-0.001220703125,0.99493408203125,[0. 0. 0. 0. 0. 0. 0. 0. 0.],0.0,0.0,0.0,[0. 0. 0. 0. 0. 0. 0. 0. 0.],-1.9140625,-0.34375,9.578125,[0. 0. 0. 0. 0. 0. 0. 0. 0.]
1742662962886112772,1742662962,875389407,imu_link,-0.01678466796875,0.099365234375,-0.001220703125,0.99493408203125,[0. 0. 0. 0. 0. 0. 0. 0. 0.],0.0,0.0,0.0,[0. 0. 0. 0. 0. 0. 0. 0. 0.],-1.9140625,-0.34375,9.578125,[0. 0. 0. 0. 0. 0. 0. 0. 0.]
1742662962898220261,1742662962,895386845,imu_link,-0.01678466796875,0.099365234375,-0.001220703125,0.99493408203125,[0. 0. 0. 0. 0. 0. 0. 0. 0.],0.0,0.0,0.0,[0. 0. 0. 0. 0. 0. 0. 0. 0.],-1.9140625,-0.34375,9.578125,[0. 0. 0. 0. 0. 0. 0. 0. 0.]
1742662962928677543,1742662962,915315541,imu_link,-0.01678466796875,0.099365234375,-0.001220703125,0.99493408203125,[0. 0. 0. 0. 0. 0. 0. 0. 0.],0.0,0.0,0.0,[0. 0. 0. 0. 0. 0. 0. 0. 0.],-1.953125,-0.34375,9.578125,[0. 0. 0. 0. 0. 0. 0. 0. 0.]
1742662962945251355,1742662962,935302960,imu_link,-0.01678466796875,0.099365234375,-0.001220703125,0.99493408203125,[0. 0. 0. 0. 0. 0. 0. 0. 0.],0.0,0.0,0.0,[0. 0. 0. 0. 0. 0. 0. 0. 0.],-1.953125,-0.3046875,9.58203125,[0. 0. 0. 0. 0. 0. 0. 0. 0.]
1742662962968184914,1742662962,955321639,imu_link,-0.016845703125,0.099365234375,-0.001220703125,0.99493408203125,[0. 0. 0. 0. 0. 0. 0. 0. 0.],0.0,0.0,0.0,[0. 0. 0. 0. 0. 0. 0. 0. 0.],-1.953125,-0.3046875,9.58203125,[0. 0. 0. 0. 0. 0. 0. 0. 0.]
1742662962987103397,1742662962,975393134,imu_link,-0.016845703125,0.099365234375,-0.001220703125,0.99493408203125,[0. 0. 0. 0. 0. 0. 0. 0. 0.],0.0,0.0,0.0,[0. 0. 0. 0. 0. 0. 0. 0. 0.],-1.9140625,-0.34375,9.578125,[0. 0. 0. 0. 0. 0. 0. 0. 0.]
1742662962998438472,1742662962,995539351,imu_link,-0.016845703125,0.099365234375,-0.001220703125,0.99493408203125,[0. 0. 0. 0. 0. 0. 0. 0. 0.],0.0,0.0,0.0,[0. 0. 0. 0. 0. 0. 0. 0. 0.],-1.9140625,-0.34375,9.578125,[0. 0. 0. 0. 0. 0. 0. 0. 0.]
1742662963028627751,1742662963,15309861,imu_link,-0.016845703125,0.099365234375,-0.001220703125,0.99493408203125,[0. 0. 0. 0. 0. 0. 0. 0. 0.],0.0,0.0,0.0,[0. 0. 0. 0. 0. 0. 0. 0. 0.],-1.953125,-0.3046875,9.58203125,[0. 0. 0. 0. 0. 0. 0. 0. 0.]
1742662963045937773,1742662963,35340150,imu_link,-0.016845703125,0.099365234375,-0.001220703125,0.99493408203125,[0. 0. 0. 0. 0. 0. 0. 0. 0.],0.0,0.0,0.0,[0. 0. 0. 0. 0. 0. 0. 0. 0.],-1.953125,-0.34375,9.578125,[0. 0. 0. 0. 0. 0. 0. 0. 0.]
1742662963070866926,1742662963,55301051,imu_link,-0.016845703125,0.099365234375,-0.001220703125,0.99493408203125,[0. 0. 0. 0. 0. 0. 0. 0. 0.],0.0,0.0,0.0,[0. 0. 0. 0. 0. 0. 0. 0. 0.],-1.9140625,-0.34375,9.578125,[0. 0. 0. 0. 0. 0. 0. 0. 0.]
1742662963078108239,1742662963,75296081,imu_link,-0.016845703125,0.099365234375,-0.001220703125,0.99493408203125,[0. 0. 0. 0. 0. 0. 0. 0. 0.],0.0,0.0,0.0,[0. 0. 0. 0. 0. 0. 0. 0. 0.],-1.9140625,-0.34375,9.578125,[0. 0. 0. 0. 0. 0. 0. 0. 0.]
1742662963115294994,1742662963,95329723,imu_link,-0.016845703125,0.099365234375,-0.001220703125,0.99493408203125,[0. 0. 0. 0. 0. 0. 0. 0. 0.],0.0,0.0,0.0,[0. 0. 0. 0. 0. 0. 0. 0. 0.],-1.9140625,-0.3046875,9.58203125,[0. 0. 0. 0. 0. 0. 0. 0. 0.]
1742662963119660963,1742662963,117857426,imu_link,-0.016845703125,0.099365234375,-0.001220703125,0.99493408203125,[0. 0. 0. 0. 0. 0. 0. 0. 0.],0.0,0.0,0.0,[0. 0. 0. 0. 0. 0. 0. 0. 0.],-1.9140625,-0.3046875,9.58203125,[0. 0. 0. 0. 0. 0. 0. 0. 0.]
1742662963146169872,1742662963,135347562,imu_link,-0.016845703125,0.099365234375,-0.001220703125,0.99493408203125,[0. 0. 0. 0. 0. 0. 0. 0. 0.],0.0,0.0,0.0,[0. 0. 0. 0. 0. 0. 0. 0. 0.],-1.9140625,-0.34375,9.578125,[0. 0. 0. 0. 0. 0. 0. 0. 0.]
1742662963170725873,1742662963,155305666,imu_link,-0.01678466796875,0.099365234375,-0.001220703125,0.99493408203125,[0. 0. 0. 0. 0. 0. 0. 0. 0.],0.0,0.0,0.0,[0. 0. 0. 0. 0. 0. 0. 0. 0.],-1.953125,-0.34375,9.578125,[0. 0. 0. 0. 0. 0. 0. 0. 0.]
1742662963178340059,1742662963,175446938,imu_link,-0.01678466796875,0.099365234375,-0.001220703125,0.99493408203125,[0. 0. 0. 0. 0. 0. 0. 0. 0.],0.0,0.0,0.0,[0. 0. 0. 0. 0. 0. 0. 0. 0.],-1.953125,-0.34375,9.578125,[0. 0. 0. 0. 0. 0. 0. 0. 0.]
1742662963212535156,1742662963,195364153,imu_link,-0.01678466796875,0.099365234375,-0.001220703125,0.99493408203125,[0. 0. 0. 0. 0. 0. 0. 0. 0.],0.0,0.0,0.0,[0. 0. 0. 0. 0. 0. 0. 0. 0.],-1.9140625,-0.3046875,9.58203125,[0. 0. 0. 0. 0. 0. 0. 0. 0.]
1742662963218107748,1742662963,215363998,imu_link,-0.01678466796875,0.099365234375,-0.001220703125,0.99493408203125,[0. 0. 0. 0. 0. 0. 0. 0. 0.],0.0,0.0,0.0,[0. 0. 0. 0. 0. 0. 0. 0. 0.],-1.9140625,-0.3046875,9.58203125,[0. 0. 0. 0. 0. 0. 0. 0. 0.]
1742662963246180950,1742662963,235393011,imu_link,-0.01678466796875,0.099365234375,-0.001220703125,0.99493408203125,[0. 0. 0. 0. 0. 0. 0. 0. 0.],0.0,0.0,0.0,[0. 0. 0. 0. 0. 0. 0. 0. 0.],-1.9140625,-0.3046875,9.58203125,[0. 0. 0. 0. 0. 0. 0. 0. 0.]
1742662963267985665,1742662963,255320170,imu_link,-0.01678466796875,0.099365234375,-0.001220703125,0.99493408203125,[0. 0. 0. 0. 0. 0. 0. 0. 0.],0.0,0.0,0.0,[0. 0. 0. 0. 0. 0. 0. 0. 0.],-1.9140625,-0.3046875,9.58203125,[0. 0. 0. 0. 0. 0. 0. 0. 0.]
1742662963278205303,1742662963,275410516,imu_link,-0.01678466796875,0.099365234375,-0.001220703125,0.99493408203125,[0. 0. 0. 0. 0. 0. 0. 0. 0.],0.0,0.0,0.0,[0. 0. 0. 0. 0. 0. 0. 0. 0.],-1.9140625,-0.3046875,9.58203125,[0. 0. 0. 0. 0. 0. 0. 0. 0.]
1742662963312241286,1742662963,295380250,imu_link,-0.01678466796875,0.099365234375,-0.001220703125,0.99493408203125,[0. 0. 0. 0. 0. 0. 0. 0. 0.],0.0,0.0,0.0,[0. 0. 0. 0. 0. 0. 0. 0. 0.],-1.9140625,-0.3046875,9.58203125,[0. 0. 0. 0. 0. 0. 0. 0. 0.]
1742662963321277135,1742662963,315245742,imu_link,-0.01678466796875,0.099365234375,-0.001220703125,0.99493408203125,[0. 0. 0. 0. 0. 0. 0. 0. 0.],0.0,0.0,0.0,[0. 0. 0. 0. 0. 0. 0. 0. 0.],-1.9140625,-0.3046875,9.58203125,[0. 0. 0. 0. 0. 0. 0. 0. 0.]
1742662963341833115,1742662963,335376866,imu_link,-0.01678466796875,0.099365234375,-0.001220703125,0.99493408203125,[0. 0. 0. 0. 0. 0. 0. 0. 0.],0.0,0.0,0.0,[0. 0. 0. 0. 0. 0. 0. 0. 0.],-1.9140625,-0.34375,9.578125,[0. 0. 0. 0. 0. 0. 0. 0. 0.]
1742662963368057762,1742662963,355410489,imu_link,-0.01678466796875,0.09930419921875,-0.001220703125,0.99493408203125,[0. 0. 0. 0. 0. 0. 0. 0. 0.],0.0,0.0,0.0,[0. 0. 0. 0. 0. 0. 0. 0. 0.],-1.9140625,-0.3046875,9.58203125,[0. 0. 0. 0. 0. 0. 0. 0. 0.]
1742662963378061101,1742662963,375303926,imu_link,-0.01678466796875,0.09930419921875,-0.001220703125,0.99493408203125,[0. 0. 0. 0. 0. 0. 0. 0. 0.],0.0,0.0,0.0,[0. 0. 0. 0. 0. 0. 0. 0. 0.],-1.9140625,-0.3046875,9.58203125,[0. 0. 0. 0. 0. 0. 0. 0. 0.]
1742662963411171761,1742662963,395375216,imu_link,-0.01678466796875,0.09930419921875,-0.001220703125,0.99493408203125,[0. 0. 0. 0. 0. 0. 0. 0. 0.],0.0,0.0,0.0,[0. 0. 0. 0. 0. 0. 0. 0. 0.],-1.953125,-0.3046875,9.58203125,[0. 0. 0. 0. 0. 0. 0. 0. 0.]
1742662963419614548,1742662963,417928439,imu_link,-0.01678466796875,0.09930419921875,-0.001220703125,0.99493408203125,[0. 0. 0. 0. 0. 0. 0. 0. 0.],0.0,0.0,0.0,[0. 0. 0. 0. 0. 0. 0. 0. 0.],-1.953125,-0.34375,9.578125,[0. 0. 0. 0. 0. 0. 0. 0. 0.]
1742662963441201224,1742662963,435382574,imu_link,-0.01678466796875,0.09930419921875,-0.001220703125,0.99493408203125,[0. 0. 0. 0. 0. 0. 0. 0. 0.],0.0,0.0,0.0,[0. 0. 0. 0. 0. 0. 0. 0. 0.],-1.953125,-0.34375,9.578125,[0. 0. 0. 0. 0. 0. 0. 0. 0.]
1742662963467996784,1742662963,455307122,imu_link,-0.0167236328125,0.09930419921875,-0.001220703125,0.99493408203125,[0. 0. 0. 0. 0. 0. 0. 0. 0.],0.0,0.0,0.0,[0. 0. 0. 0. 0. 0. 0. 0. 0.],-1.953125,-0.3046875,9.58203125,[0. 0. 0. 0. 0. 0. 0. 0. 0.]
1742662963485972276,1742662963,475307226,imu_link,-0.0167236328125,0.09930419921875,-0.001220703125,0.99493408203125,[0. 0. 0. 0. 0. 0. 0. 0. 0.],0.0,0.0,0.0,[0. 0. 0. 0. 0. 0. 0. 0. 0.],-1.9140625,-0.34375,9.578125,[0. 0. 0. 0. 0. 0. 0. 0. 0.]
1742662963497811022,1742662963,495444128,imu_link,-0.0167236328125,0.09930419921875,-0.001220703125,0.99493408203125,[0. 0. 0. 0. 0. 0. 0. 0. 0.],0.0,0.0,0.0,[0. 0. 0. 0. 0. 0. 0. 0. 0.],-1.9140625,-0.34375,9.578125,[0. 0. 0. 0. 0. 0. 0. 0. 0.]
1742662963529092108,1742662963,515525641,imu_link,-0.0167236328125,0.0992431640625,-0.001220703125,0.99493408203125,[0. 0. 0. 0. 0. 0. 0. 0. 0.],0.0,0.0,0.0,[0. 0. 0. 0. 0. 0. 0. 0. 0.],-1.953125,-0.3046875,9.58203125,[0. 0. 0. 0. 0. 0. 0. 0. 0.]
1742662963538079826,1742662963,536106529,imu_link,-0.0167236328125,0.0992431640625,-0.001220703125,0.99493408203125,[0. 0. 0. 0. 0. 0. 0. 0. 0.],0.0,0.0,0.0,[0. 0. 0. 0. 0. 0. 0. 0. 0.],-1.953125,-0.3046875,9.58203125,[0. 0. 0. 0. 0. 0. 0. 0. 0.]
1742662963567763582,1742662963,555301403,imu_link,-0.01666259765625,0.0992431640625,-0.001220703125,0.99493408203125,[0. 0. 0. 0. 0. 0. 0. 0. 0.],0.0,0.0,0.0,[0. 0. 0. 0. 0. 0. 0. 0. 0.],-1.953125,-0.3046875,9.58203125,[0. 0. 0. 0. 0. 0. 0. 0. 0.]
1742662963587202958,1742662963,575313601,imu_link,-0.01666259765625,0.0992431640625,-0.001220703125,0.99493408203125,[0. 0. 0. 0. 0. 0. 0. 0. 0.],0.0,0.0,0.0,[0. 0. 0. 0. 0. 0. 0. 0. 0.],-1.9140625,-0.34375,9.578125,[0. 0. 0. 0. 0. 0. 0. 0. 0.]
1742662963597427578,1742662963,595303020,imu_link,-0.01666259765625,0.0992431640625,-0.001220703125,0.99493408203125,[0. 0. 0. 0. 0. 0. 0. 0. 0.],0.0,0.0,0.0,[0. 0. 0. 0. 0. 0. 0. 0. 0.],-1.9140625,-0.34375,9.578125,[0. 0. 0. 0. 0. 0. 0. 0. 0.]
1742662963627869841,1742662963,615445811,imu_link,-0.01666259765625,0.0992431640625,-0.001220703125,0.99493408203125,[0. 0. 0. 0. 0. 0. 0. 0. 0.],0.0,0.0,0.0,[0. 0. 0. 0. 0. 0. 0. 0. 0.],-1.9140625,-0.34375,9.578125,[0. 0. 0. 0. 0. 0. 0. 0. 0.]
1742662963639342250,1742662963,637492769,imu_link,-0.01666259765625,0.0992431640625,-0.001220703125,0.99493408203125,[0. 0. 0. 0. 0. 0. 0. 0. 0.],0.0,0.0,0.0,[0. 0. 0. 0. 0. 0. 0. 0. 0.],-1.953125,-0.34375,9.578125,[0. 0. 0. 0. 0. 0. 0. 0. 0.]
1742662963672685912,1742662963,655361482,imu_link,-0.01666259765625,0.0992431640625,-0.001220703125,0.99493408203125,[0. 0. 0. 0. 0. 0. 0. 0. 0.],0.0,0.0,0.0,[0. 0. 0. 0. 0. 0. 0. 0. 0.],-1.953125,-0.3046875,9.58203125,[0. 0. 0. 0. 0. 0. 0. 0. 0.]
1742662963677941167,1742662963,675548107,imu_link,-0.01666259765625,0.0992431640625,-0.001220703125,0.99493408203125,[0. 0. 0. 0. 0. 0. 0. 0. 0.],0.0,0.0,0.0,[0. 0. 0. 0. 0. 0. 0. 0. 0.],-1.953125,-0.3046875,9.58203125,[0. 0. 0. 0. 0. 0. 0. 0. 0.]
1742662963711950151,1742662963,695328376,imu_link,-0.0166015625,0.0992431640625,-0.001220703125,0.99493408203125,[0. 0. 0. 0. 0. 0. 0. 0. 0.],0.0,0.0,0.0,[0. 0. 0. 0. 0. 0. 0. 0. 0.],-1.9140625,-0.34375,9.578125,[0. 0. 0. 0. 0. 0. 0. 0. 0.]
1742662963717503113,1742662963,715300072,imu_link,-0.0166015625,0.0992431640625,-0.001220703125,0.99493408203125,[0. 0. 0. 0. 0. 0. 0. 0. 0.],0.0,0.0,0.0,[0. 0. 0. 0. 0. 0. 0. 0. 0.],-1.9140625,-0.34375,9.578125,[0. 0. 0. 0. 0. 0. 0. 0. 0.]
1742662963746674900,1742662963,735308862,imu_link,-0.0166015625,0.0992431640625,-0.001220703125,0.99493408203125,[0. 0. 0. 0. 0. 0. 0. 0. 0.],0.0,0.0,0.0,[0. 0. 0. 0. 0. 0. 0. 0. 0.],-1.9140625,-0.34375,9.578125,[0. 0. 0. 0. 0. 0. 0. 0. 0.]
1742662963772246634,1742662963,755308337,imu_link,-0.0166015625,0.09930419921875,-0.001220703125,0.99493408203125,[0. 0. 0. 0. 0. 0. 0. 0. 0.],0.0,0.0,0.0,[0. 0. 0. 0. 0. 0. 0. 0. 0.],-1.953125,-0.34375,9.578125,[0. 0. 0. 0. 0. 0. 0. 0. 0.]
1742662963777471592,1742662963,775288682,imu_link,-0.0166015625,0.09930419921875,-0.001220703125,0.99493408203125,[0. 0. 0. 0. 0. 0. 0. 0. 0.],0.0,0.0,0.0,[0. 0. 0. 0. 0. 0. 0. 0. 0.],-1.953125,-0.34375,9.578125,[0. 0. 0. 0. 0. 0. 0. 0. 0.]
1742662963812732699,1742662963,795383584,imu_link,-0.0166015625,0.0992431640625,-0.001220703125,0.99493408203125,[0. 0. 0. 0. 0. 0. 0. 0. 0.],0.001953125,0.0,0.001953125,[0. 0. 0. 0. 0. 0. 0. 0. 0.],-1.9140625,-0.34375,9.578125,[0. 0. 0. 0. 0. 0. 0. 0. 0.]
1742662963817488450,1742662963,815367688,imu_link,-0.0166015625,0.0992431640625,-0.001220703125,0.99493408203125,[0. 0. 0. 0. 0. 0. 0. 0. 0.],0.001953125,0.0,0.001953125,[0. 0. 0. 0. 0. 0. 0. 0. 0.],-1.9140625,-0.34375,9.578125,[0. 0. 0. 0. 0. 0. 0. 0. 0.]
1742662963846510736,1742662963,835356366,imu_link,-0.0166015625,0.0992431640625,-0.001220703125,0.99493408203125,[0. 0. 0. 0. 0. 0. 0. 0. 0.],-0.001953125,0.001953125,0.00390625,[0. 0. 0. 0. 0. 0. 0. 0. 0.],-1.953125,-0.3046875,9.58203125,[0. 0. 0. 0. 0. 0. 0. 0. 0.]
1742662963868447322,1742662963,855380860,imu_link,-0.0166015625,0.0992431640625,-0.001220703125,0.99493408203125,[0. 0. 0. 0. 0. 0. 0. 0. 0.],-0.001953125,0.001953125,0.00390625,[0. 0. 0. 0. 0. 0. 0. 0. 0.],-1.9140625,-0.3046875,9.58203125,[0. 0. 0. 0. 0. 0. 0. 0. 0.]
1742662963877354058,1742662963,875296982,imu_link,-0.0166015625,0.0992431640625,-0.001220703125,0.99493408203125,[0. 0. 0. 0. 0. 0. 0. 0. 0.],-0.001953125,0.001953125,0.00390625,[0. 0. 0. 0. 0. 0. 0. 0. 0.],-1.9140625,-0.3046875,9.58203125,[0. 0. 0. 0. 0. 0. 0. 0. 0.]
1742662963911879639,1742662963,895372458,imu_link,-0.0166015625,0.0992431640625,-0.001220703125,0.99493408203125,[0. 0. 0. 0. 0. 0. 0. 0. 0.],-0.001953125,0.0,0.001953125,[0. 0. 0. 0. 0. 0. 0. 0. 0.],-1.9140625,-0.34375,9.578125,[0. 0. 0. 0. 0. 0. 0. 0. 0.]
1742662963917031393,1742662963,915294710,imu_link,-0.0166015625,0.0992431640625,-0.001220703125,0.99493408203125,[0. 0. 0. 0. 0. 0. 0. 0. 0.],-0.001953125,0.0,0.001953125,[0. 0. 0. 0. 0. 0. 0. 0. 0.],-1.9140625,-0.34375,9.578125,[0. 0. 0. 0. 0. 0. 0. 0. 0.]
1742662963941943528,1742662963,935371537,imu_link,-0.0166015625,0.0992431640625,-0.001220703125,0.99493408203125,[0. 0. 0. 0. 0. 0. 0. 0. 0.],0.0,-0.001953125,0.0,[0. 0. 0. 0. 0. 0. 0. 0. 0.],-1.953125,-0.34375,9.578125,[0. 0. 0. 0. 0. 0. 0. 0. 0.]
1742662963968260306,1742662963,955325956,imu_link,-0.0166015625,0.0992431640625,-0.001220703125,0.99493408203125,[0. 0. 0. 0. 0. 0. 0. 0. 0.],0.0,-0.001953125,0.0,[0. 0. 0. 0. 0. 0. 0. 0. 0.],-1.9140625,-0.34375,9.578125,[0. 0. 0. 0. 0. 0. 0. 0. 0.]
1742662963977115115,1742662963,975323023,imu_link,-0.0166015625,0.0992431640625,-0.001220703125,0.99493408203125,[0. 0. 0. 0. 0. 0. 0. 0. 0.],0.0,-0.001953125,0.0,[0. 0. 0. 0. 0. 0. 0. 0. 0.],-1.9140625,-0.34375,9.578125,[0. 0. 0. 0. 0. 0. 0. 0. 0.]
1742662964017068823,1742662963,995517908,imu_link,-0.0166015625,0.09930419921875,-0.00115966796875,0.99493408203125,[0. 0. 0. 0. 0. 0. 0. 0. 0.],-0.001953125,0.0,0.00390625,[0. 0. 0. 0. 0. 0. 0. 0. 0.],-1.9140625,-0.3046875,9.58203125,[0. 0. 0. 0. 0. 0. 0. 0. 0.]
1742662964021957520,1742662964,18682747,imu_link,-0.0166015625,0.09930419921875,-0.00115966796875,0.99493408203125,[0. 0. 0. 0. 0. 0. 0. 0. 0.],-0.001953125,0.0,0.00390625,[0. 0. 0. 0. 0. 0. 0. 0. 0.],-1.9140625,-0.34375,9.578125,[0. 0. 0. 0. 0. 0. 0. 0. 0.]
1742662964041705177,1742662964,35371078,imu_link,-0.0166015625,0.09930419921875,-0.00115966796875,0.99493408203125,[0. 0. 0. 0. 0. 0. 0. 0. 0.],0.001953125,0.001953125,0.001953125,[0. 0. 0. 0. 0. 0. 0. 0. 0.],-1.9140625,-0.34375,9.578125,[0. 0. 0. 0. 0. 0. 0. 0. 0.]
1742662964067180965,1742662964,55335367,imu_link,-0.01666259765625,0.0992431640625,-0.00115966796875,0.99493408203125,[0. 0. 0. 0. 0. 0. 0. 0. 0.],0.001953125,0.001953125,0.001953125,[0. 0. 0. 0. 0. 0. 0. 0. 0.],-1.953125,-0.3046875,9.58203125,[0. 0. 0. 0. 0. 0. 0. 0. 0.]
1742662964085947483,1742662964,75348045,imu_link,-0.01666259765625,0.0992431640625,-0.00115966796875,0.99493408203125,[0. 0. 0. 0. 0. 0. 0. 0. 0.],0.0,0.0,0.0,[0. 0. 0. 0. 0. 0. 0. 0. 0.],-1.953125,-0.34375,9.5390625,[0. 0. 0. 0. 0. 0. 0. 0. 0.]
1742662964097054926,1742662964,95339409,imu_link,-0.01666259765625,0.0992431640625,-0.00115966796875,0.99493408203125,[0. 0. 0. 0. 0. 0. 0. 0. 0.],0.0,0.0,0.0,[0. 0. 0. 0. 0. 0. 0. 0. 0.],-1.953125,-0.34375,9.5390625,[0. 0. 0. 0. 0. 0. 0. 0. 0.]
1742662964127890822,1742662964,115404051,imu_link,-0.01666259765625,0.0992431640625,-0.00115966796875,0.99493408203125,[0. 0. 0. 0. 0. 0. 0. 0. 0.],0.0,0.0,0.0,[0. 0. 0. 0. 0. 0. 0. 0. 0.],-1.9140625,-0.34375,9.578125,[0. 0. 0. 0. 0. 0. 0. 0. 0.]
1742662964136989800,1742662964,135285635,imu_link,-0.01666259765625,0.0992431640625,-0.00115966796875,0.99493408203125,[0. 0. 0. 0. 0. 0. 0. 0. 0.],-0.001953125,-0.001953125,-0.001953125,[0. 0. 0. 0. 0. 0. 0. 0. 0.],-1.9140625,-0.34375,9.578125,[0. 0. 0. 0. 0. 0. 0. 0. 0.]
1742662964168264775,1742662964,155381389,imu_link,-0.0167236328125,0.0992431640625,-0.00115966796875,0.99493408203125,[0. 0. 0. 0. 0. 0. 0. 0. 0.],-0.001953125,-0.001953125,-0.001953125,[0. 0. 0. 0. 0. 0. 0. 0. 0.],-1.953125,-0.3046875,9.54296875,[0. 0. 0. 0. 0. 0. 0. 0. 0.]
1742662964177275660,1742662964,175371715,imu_link,-0.0167236328125,0.0992431640625,-0.00115966796875,0.99493408203125,[0. 0. 0. 0. 0. 0. 0. 0. 0.],-0.001953125,-0.001953125,-0.001953125,[0. 0. 0. 0. 0. 0. 0. 0. 0.],-1.953125,-0.3046875,9.58203125,[0. 0. 0. 0. 0. 0. 0. 0. 0.]
1742662964197090670,1742662964,195358393,imu_link,-0.0167236328125,0.0992431640625,-0.00115966796875,0.99493408203125,[0. 0. 0. 0. 0. 0. 0. 0. 0.],0.001953125,0.0,0.001953125,[0. 0. 0. 0. 0. 0. 0. 0. 0.],-1.953125,-0.3046875,9.58203125,[0. 0. 0. 0. 0. 0. 0. 0. 0.]
1742662964231681732,1742662964,215390035,imu_link,-0.01666259765625,0.09930419921875,-0.00115966796875,0.99493408203125,[0. 0. 0. 0. 0. 0. 0. 0. 0.],0.001953125,0.0,0.001953125,[0. 0. 0. 0. 0. 0. 0. 0. 0.],-1.953125,-0.3046875,9.54296875,[0. 0. 0. 0. 0. 0. 0. 0. 0.]
1742662964241791258,1742662964,238239112,imu_link,-0.01666259765625,0.09930419921875,-0.00115966796875,0.99493408203125,[0. 0. 0. 0. 0. 0. 0. 0. 0.],-0.001953125,0.0,-0.001953125,[0. 0. 0. 0. 0. 0. 0. 0. 0.],-1.9140625,-0.34375,9.578125,[0. 0. 0. 0. 0. 0. 0. 0. 0.]
1742662964272471412,1742662964,255363391,imu_link,-0.01666259765625,0.09930419921875,-0.00115966796875,0.99493408203125,[0. 0. 0. 0. 0. 0. 0. 0. 0.],-0.001953125,0.0,-0.001953125,[0. 0. 0. 0. 0. 0. 0. 0. 0.],-1.953125,-0.34375,9.578125,[0. 0. 0. 0. 0. 0. 0. 0. 0.]
1742662964277134106,1742662964,275349051,imu_link,-0.01666259765625,0.09930419921875,-0.00115966796875,0.99493408203125,[0. 0. 0. 0. 0. 0. 0. 0. 0.],-0.001953125,0.0,-0.001953125,[0. 0. 0. 0. 0. 0. 0. 0. 0.],-1.953125,-0.34375,9.578125,[0. 0. 0. 0. 0. 0. 0. 0. 0.]
1742662964310001411,1742662964,295364841,imu_link,-0.0167236328125,0.09930419921875,-0.00115966796875,0.99493408203125,[0. 0. 0. 0. 0. 0. 0. 0. 0.],-0.00390625,-0.001953125,0.0,[0. 0. 0. 0. 0. 0. 0. 0. 0.],-1.953125,-0.34375,9.578125,[0. 0. 0. 0. 0. 0. 0. 0. 0.]
1742662964317394706,1742662964,315532113,imu_link,-0.0167236328125,0.09930419921875,-0.00115966796875,0.99493408203125,[0. 0. 0. 0. 0. 0. 0. 0. 0.],-0.00390625,-0.001953125,0.0,[0. 0. 0. 0. 0. 0. 0. 0. 0.],-1.9140625,-0.3046875,9.58203125,[0. 0. 0. 0. 0. 0. 0. 0. 0.]
1742662964346036506,1742662964,335372642,imu_link,-0.0167236328125,0.09930419921875,-0.00115966796875,0.99493408203125,[0. 0. 0. 0. 0. 0. 0. 0. 0.],0.001953125,-0.001953125,0.00390625,[0. 0. 0. 0. 0. 0. 0. 0. 0.],-1.9140625,-0.34375,9.578125,[0. 0. 0. 0. 0. 0. 0. 0. 0.]
1742662964367410828,1742662964,355568692,imu_link,-0.0167236328125,0.09930419921875,-0.00115966796875,0.99493408203125,[0. 0. 0. 0. 0. 0. 0. 0. 0.],0.001953125,-0.001953125,0.00390625,[0. 0. 0. 0. 0. 0. 0. 0. 0.],-1.9140625,-0.3046875,9.58203125,[0. 0. 0. 0. 0. 0. 0. 0. 0.]
1742662964377180627,1742662964,375348683,imu_link,-0.0167236328125,0.09930419921875,-0.00115966796875,0.99493408203125,[0. 0. 0. 0. 0. 0. 0. 0. 0.],0.001953125,-0.001953125,0.00390625,[0. 0. 0. 0. 0. 0. 0. 0. 0.],-1.9140625,-0.3046875,9.58203125,[0. 0. 0. 0. 0. 0. 0. 0. 0.]
1742662964411571447,1742662964,395383584,imu_link,-0.0167236328125,0.099365234375,-0.00115966796875,0.99493408203125,[0. 0. 0. 0. 0. 0. 0. 0. 0.],0.0,0.001953125,0.001953125,[0. 0. 0. 0. 0. 0. 0. 0. 0.],-1.9140625,-0.3046875,9.58203125,[0. 0. 0. 0. 0. 0. 0. 0. 0.]
1742662964417016223,1742662964,415289317,imu_link,-0.0167236328125,0.099365234375,-0.00115966796875,0.99493408203125,[0. 0. 0. 0. 0. 0. 0. 0. 0.],0.0,0.001953125,0.001953125,[0. 0. 0. 0. 0. 0. 0. 0. 0.],-1.9140625,-0.3046875,9.58203125,[0. 0. 0. 0. 0. 0. 0. 0. 0.]
1742662964445903933,1742662964,435378922,imu_link,-0.0167236328125,0.099365234375,-0.00115966796875,0.99493408203125,[0. 0. 0. 0. 0. 0. 0. 0. 0.],0.001953125,-0.001953125,0.001953125,[0. 0. 0. 0. 0. 0. 0. 0. 0.],-1.953125,-0.3046875,9.58203125,[0. 0. 0. 0. 0. 0. 0. 0. 0.]
1742662964467697037,1742662964,455375323,imu_link,-0.01666259765625,0.099365234375,-0.00115966796875,0.99493408203125,[0. 0. 0. 0. 0. 0. 0. 0. 0.],0.001953125,-0.001953125,0.001953125,[0. 0. 0. 0. 0. 0. 0. 0. 0.],-1.9140625,-0.34375,9.578125,[0. 0. 0. 0. 0. 0. 0. 0. 0.]
1742662964477014332,1742662964,475294704,imu_link,-0.01666259765625,0.099365234375,-0.00115966796875,0.99493408203125,[0. 0. 0. 0. 0. 0. 0. 0. 0.],0.001953125,-0.001953125,0.001953125,[0. 0. 0. 0. 0. 0. 0. 0. 0.],-1.9140625,-0.34375,9.578125,[0. 0. 0. 0. 0. 0. 0. 0. 0.]
1742662964511459005,1742662964,495512218,imu_link,-0.01666259765625,0.09930419921875,-0.00115966796875,0.99493408203125,[0. 0. 0. 0. 0. 0. 0. 0. 0.],-0.001953125,0.0,-0.001953125,[0. 0. 0. 0. 0. 0. 0. 0. 0.],-1.953125,-0.34375,9.578125,[0. 0. 0. 0. 0. 0. 0. 0. 0.]
1742662964516980818,1742662964,515286079,imu_link,-0.01666259765625,0.09930419921875,-0.00115966796875,0.99493408203125,[0. 0. 0. 0. 0. 0. 0. 0. 0.],-0.001953125,0.0,-0.001953125,[0. 0. 0. 0. 0. 0. 0. 0. 0.],-1.953125,-0.34375,9.578125,[0. 0. 0. 0. 0. 0. 0. 0. 0.]
1742662964545961437,1742662964,535368240,imu_link,-0.01666259765625,0.09930419921875,-0.00115966796875,0.99493408203125,[0. 0. 0. 0. 0. 0. 0. 0. 0.],0.0,0.001953125,0.001953125,[0. 0. 0. 0. 0. 0. 0. 0. 0.],-1.953125,-0.34375,9.578125,[0. 0. 0. 0. 0. 0. 0. 0. 0.]
1742662964567952672,1742662964,555397419,imu_link,-0.0166015625,0.099365234375,-0.00115966796875,0.99493408203125,[0. 0. 0. 0. 0. 0. 0. 0. 0.],0.0,0.001953125,0.001953125,[0. 0. 0. 0. 0. 0. 0. 0. 0.],-1.953125,-0.34375,9.578125,[0. 0. 0. 0. 0. 0. 0. 0. 0.]
1742662964577123595,1742662964,575296207,imu_link,-0.0166015625,0.099365234375,-0.00115966796875,0.99493408203125,[0. 0. 0. 0. 0. 0. 0. 0. 0.],0.0,0.001953125,0.001953125,[0. 0. 0. 0. 0. 0. 0. 0. 0.],-1.953125,-0.34375,9.578125,[0. 0. 0. 0. 0. 0. 0. 0. 0.]
1742662964597038254,1742662964,595335201,imu_link,-0.0166015625,0.099365234375,-0.00115966796875,0.99493408203125,[0. 0. 0. 0. 0. 0. 0. 0. 0.],0.0,0.001953125,0.001953125,[0. 0. 0. 0. 0. 0. 0. 0. 0.],-1.9140625,-0.34375,9.578125,[0. 0. 0. 0. 0. 0. 0. 0. 0.]
1742662964622042204,1742662964,615388435,imu_link,-0.0166015625,0.099365234375,-0.0010986328125,0.99493408203125,[0. 0. 0. 0. 0. 0. 0. 0. 0.],0.0,0.001953125,0.001953125,[0. 0. 0. 0. 0. 0. 0. 0. 0.],-1.953125,-0.3046875,9.54296875,[0. 0. 0. 0. 0. 0. 0. 0. 0.]
1742662964641988030,1742662964,635318613,imu_link,-0.0166015625,0.099365234375,-0.0010986328125,0.99493408203125,[0. 0. 0. 0. 0. 0. 0. 0. 0.],0.001953125,0.0,0.001953125,[0. 0. 0. 0. 0. 0. 0. 0. 0.],-1.953125,-0.3046875,9.54296875,[0. 0. 0. 0. 0. 0. 0. 0. 0.]
1742662964666883516,1742662964,655439218,imu_link,-0.0166015625,0.099365234375,-0.0010986328125,0.99493408203125,[0. 0. 0. 0. 0. 0. 0. 0. 0.],0.001953125,0.0,0.001953125,[0. 0. 0. 0. 0. 0. 0. 0. 0.],-1.9140625,-0.3046875,9.58203125,[0. 0. 0. 0. 0. 0. 0. 0. 0.]
1742662964685544866,1742662964,675493508,imu_link,-0.0166015625,0.099365234375,-0.0010986328125,0.99493408203125,[0. 0. 0. 0. 0. 0. 0. 0. 0.],0.0,-0.001953125,-0.001953125,[0. 0. 0. 0. 0. 0. 0. 0. 0.],-1.953125,-0.34375,9.578125,[0. 0. 0. 0. 0. 0. 0. 0. 0.]
1742662964697101739,1742662964,695367482,imu_link,-0.0166015625,0.099365234375,-0.0010986328125,0.99493408203125,[0. 0. 0. 0. 0. 0. 0. 0. 0.],0.0,-0.001953125,-0.001953125,[0. 0. 0. 0. 0. 0. 0. 0. 0.],-1.953125,-0.34375,9.578125,[0. 0. 0. 0. 0. 0. 0. 0. 0.]
1742662964722110819,1742662964,715464939,imu_link,-0.0166015625,0.099365234375,-0.00115966796875,0.99493408203125,[0. 0. 0. 0. 0. 0. 0. 0. 0.],0.0,-0.001953125,-0.001953125,[0. 0. 0. 0. 0. 0. 0. 0. 0.],-1.9140625,-0.3046875,9.58203125,[0. 0. 0. 0. 0. 0. 0. 0. 0.]
1742662964745122397,1742662964,735330912,imu_link,-0.0166015625,0.099365234375,-0.00115966796875,0.99493408203125,[0. 0. 0. 0. 0. 0. 0. 0. 0.],-0.001953125,0.001953125,-0.001953125,[0. 0. 0. 0. 0. 0. 0. 0. 0.],-1.953125,-0.3046875,9.58203125,[0. 0. 0. 0. 0. 0. 0. 0. 0.]
1742662964766809611,1742662964,755412258,imu_link,-0.01666259765625,0.09942626953125,-0.0010986328125,0.99493408203125,[0. 0. 0. 0. 0. 0. 0. 0. 0.],-0.001953125,0.001953125,-0.001953125,[0. 0. 0. 0. 0. 0. 0. 0. 0.],-1.953125,-0.3046875,9.58203125,[0. 0. 0. 0. 0. 0. 0. 0. 0.]
1742662964785152477,1742662964,775294842,imu_link,-0.01666259765625,0.09942626953125,-0.0010986328125,0.99493408203125,[0. 0. 0. 0. 0. 0. 0. 0. 0.],0.001953125,0.001953125,0.0,[0. 0. 0. 0. 0. 0. 0. 0. 0.],-1.953125,-0.34375,9.578125,[0. 0. 0. 0. 0. 0. 0. 0. 0.]
1742662964807071748,1742662964,795349558,imu_link,-0.01666259765625,0.09942626953125,-0.0010986328125,0.99493408203125,[0. 0. 0. 0. 0. 0. 0. 0. 0.],0.001953125,0.001953125,0.0,[0. 0. 0. 0. 0. 0. 0. 0. 0.],-1.953125,-0.34375,9.578125,[0. 0. 0. 0. 0. 0. 0. 0. 0.]
1742662964817242385,1742662964,815331718,imu_link,-0.01666259765625,0.09942626953125,-0.0010986328125,0.99493408203125,[0. 0. 0. 0. 0. 0. 0. 0. 0.],0.001953125,0.001953125,0.0,[0. 0. 0. 0. 0. 0. 0. 0. 0.],-1.953125,-0.3046875,9.58203125,[0. 0. 0. 0. 0. 0. 0. 0. 0.]
1742662964845015029,1742662964,835309729,imu_link,-0.01666259765625,0.09942626953125,-0.0010986328125,0.99493408203125,[0. 0. 0. 0. 0. 0. 0. 0. 0.],-0.001953125,0.0,-0.001953125,[0. 0. 0. 0. 0. 0. 0. 0. 0.],-1.953125,-0.34375,9.578125,[0. 0. 0. 0. 0. 0. 0. 0. 0.]
1742662964871227972,1742662964,855488484,imu_link,-0.0166015625,0.0994873046875,-0.0010986328125,0.994873046875,[0. 0. 0. 0. 0. 0. 0. 0. 0.],-0.001953125,0.0,-0.001953125,[0. 0. 0. 0. 0. 0. 0. 0. 0.],-1.953125,-0.3046875,9.58203125,[0. 0. 0. 0. 0. 0. 0. 0. 0.]
1742662964881964337,1742662964,875288234,imu_link,-0.0166015625,0.0994873046875,-0.0010986328125,0.994873046875,[0. 0. 0. 0. 0. 0. 0. 0. 0.],0.0,0.00390625,0.0,[0. 0. 0. 0. 0. 0. 0. 0. 0.],-1.953125,-0.3046875,9.58203125,[0. 0. 0. 0. 0. 0. 0. 0. 0.]
1742662964897159153,1742662964,895374228,imu_link,-0.0166015625,0.0994873046875,-0.0010986328125,0.994873046875,[0. 0. 0. 0. 0. 0. 0. 0. 0.],0.0,0.00390625,0.0,[0. 0. 0. 0. 0. 0. 0. 0. 0.],-1.953125,-0.3046875,9.58203125,[0. 0. 0. 0. 0. 0. 0. 0. 0.]
1742662964917367982,1742662964,915302035,imu_link,-0.0166015625,0.0994873046875,-0.0010986328125,0.994873046875,[0. 0. 0. 0. 0. 0. 0. 0. 0.],0.0,0.00390625,0.0,[0. 0. 0. 0. 0. 0. 0. 0. 0.],-1.9140625,-0.3046875,9.58203125,[0. 0. 0. 0. 0. 0. 0. 0. 0.]
1742662964945259090,1742662964,935393178,imu_link,-0.0166015625,0.0994873046875,-0.0010986328125,0.994873046875,[0. 0. 0. 0. 0. 0. 0. 0. 0.],0.001953125,-0.001953125,0.0,[0. 0. 0. 0. 0. 0. 0. 0. 0.],-1.953125,-0.34375,9.578125,[0. 0. 0. 0. 0. 0. 0. 0. 0.]
1742662964964249110,1742662964,956533608,imu_link,-0.0166015625,0.0994873046875,-0.0010986328125,0.994873046875,[0. 0. 0. 0. 0. 0. 0. 0. 0.],0.001953125,-0.001953125,0.0,[0. 0. 0. 0. 0. 0. 0. 0. 0.],-1.953125,-0.34375,9.578125,[0. 0. 0. 0. 0. 0. 0. 0. 0.]
1742662964982116471,1742662964,975334497,imu_link,-0.0166015625,0.0994873046875,-0.0010986328125,0.994873046875,[0. 0. 0. 0. 0. 0. 0. 0. 0.],-0.001953125,0.0,0.0,[0. 0. 0. 0. 0. 0. 0. 0. 0.],-1.953125,-0.34375,9.578125,[0. 0. 0. 0. 0. 0. 0. 0. 0.]
1742662965009167478,1742662964,995488880,imu_link,-0.0166015625,0.09954833984375,-0.0010986328125,0.994873046875,[0. 0. 0. 0. 0. 0. 0. 0. 0.],-0.001953125,0.0,0.0,[0. 0. 0. 0. 0. 0. 0. 0. 0.],-1.953125,-0.34375,9.578125,[0. 0. 0. 0. 0. 0. 0. 0. 0.]
1742662965017047018,1742662965,15325557,imu_link,-0.0166015625,0.09954833984375,-0.0010986328125,0.994873046875,[0. 0. 0. 0. 0. 0. 0. 0. 0.],-0.001953125,0.0,0.0,[0. 0. 0. 0. 0. 0. 0. 0. 0.],-1.953125,-0.34375,9.578125,[0. 0. 0. 0. 0. 0. 0. 0. 0.]
1742662965045231499,1742662965,35382828,imu_link,-0.0166015625,0.09954833984375,-0.0010986328125,0.994873046875,[0. 0. 0. 0. 0. 0. 0. 0. 0.],0.0,0.001953125,-0.001953125,[0. 0. 0. 0. 0. 0. 0. 0. 0.],-1.9140625,-0.34375,9.578125,[0. 0. 0. 0. 0. 0. 0. 0. 0.]
1742662965063600476,1742662965,60869542,imu_link,-0.0166015625,0.099609375,-0.00103759765625,0.994873046875,[0. 0. 0. 0. 0. 0. 0. 0. 0.],0.0,0.001953125,-0.001953125,[0. 0. 0. 0. 0. 0. 0. 0. 0.],-1.953125,-0.34375,9.578125,[0. 0. 0. 0. 0. 0. 0. 0. 0.]
1742662965082042398,1742662965,75352999,imu_link,-0.0166015625,0.099609375,-0.00103759765625,0.994873046875,[0. 0. 0. 0. 0. 0. 0. 0. 0.],0.001953125,0.001953125,0.00390625,[0. 0. 0. 0. 0. 0. 0. 0. 0.],-1.953125,-0.34375,9.578125,[0. 0. 0. 0. 0. 0. 0. 0. 0.]
1742662965107698632,1742662965,95333121,imu_link,-0.01666259765625,0.099609375,-0.00103759765625,0.994873046875,[0. 0. 0. 0. 0. 0. 0. 0. 0.],0.001953125,0.001953125,0.00390625,[0. 0. 0. 0. 0. 0. 0. 0. 0.],-1.9140625,-0.3046875,9.58203125,[0. 0. 0. 0. 0. 0. 0. 0. 0.]
1742662965117075317,1742662965,115350596,imu_link,-0.01666259765625,0.099609375,-0.00103759765625,0.994873046875,[0. 0. 0. 0. 0. 0. 0. 0. 0.],0.001953125,0.001953125,0.00390625,[0. 0. 0. 0. 0. 0. 0. 0. 0.],-1.9140625,-0.3046875,9.58203125,[0. 0. 0. 0. 0. 0. 0. 0. 0.]
1742662965141936061,1742662965,135311903,imu_link,-0.01666259765625,0.099609375,-0.00103759765625,0.994873046875,[0. 0. 0. 0. 0. 0. 0. 0. 0.],0.00390625,0.00390625,0.0,[0. 0. 0. 0. 0. 0. 0. 0. 0.],-1.953125,-0.3046875,9.54296875,[0. 0. 0. 0. 0. 0. 0. 0. 0.]
1742662965168909012,1742662965,155401860,imu_link,-0.0166015625,0.09967041015625,-0.0009765625,0.994873046875,[0. 0. 0. 0. 0. 0. 0. 0. 0.],0.00390625,0.00390625,0.0,[0. 0. 0. 0. 0. 0. 0. 0. 0.],-1.953125,-0.3046875,9.58203125,[0. 0. 0. 0. 0. 0. 0. 0. 0.]
1742662965185982291,1742662965,175445983,imu_link,-0.0166015625,0.09967041015625,-0.0009765625,0.994873046875,[0. 0. 0. 0. 0. 0. 0. 0. 0.],0.0,0.0,-0.001953125,[0. 0. 0. 0. 0. 0. 0. 0. 0.],-1.9140625,-0.3046875,9.58203125,[0. 0. 0. 0. 0. 0. 0. 0. 0.]
1742662965207535669,1742662965,195387365,imu_link,-0.01666259765625,0.09967041015625,-0.00103759765625,0.994873046875,[0. 0. 0. 0. 0. 0. 0. 0. 0.],0.0,0.0,-0.001953125,[0. 0. 0. 0. 0. 0. 0. 0. 0.],-1.9140625,-0.3046875,9.58203125,[0. 0. 0. 0. 0. 0. 0. 0. 0.]
1742662965222643892,1742662965,215343413,imu_link,-0.01666259765625,0.09967041015625,-0.00103759765625,0.994873046875,[0. 0. 0. 0. 0. 0. 0. 0. 0.],0.0,0.0,-0.001953125,[0. 0. 0. 0. 0. 0. 0. 0. 0.],-1.953125,-0.34375,9.578125,[0. 0. 0. 0. 0. 0. 0. 0. 0.]
1742662965242056453,1742662965,235323535,imu_link,-0.01666259765625,0.09967041015625,-0.00103759765625,0.994873046875,[0. 0. 0. 0. 0. 0. 0. 0. 0.],0.0,0.001953125,-0.001953125,[0. 0. 0. 0. 0. 0. 0. 0. 0.],-1.953125,-0.34375,9.578125,[0. 0. 0. 0. 0. 0. 0. 0. 0.]
1742662965261395902,1742662965,258018073,imu_link,-0.0166015625,0.09967041015625,-0.00103759765625,0.994873046875,[0. 0. 0. 0. 0. 0. 0. 0. 0.],0.0,0.001953125,-0.001953125,[0. 0. 0. 0. 0. 0. 0. 0. 0.],-1.953125,-0.3046875,9.609375,[0. 0. 0. 0. 0. 0. 0. 0. 0.]
1742662965284516074,1742662965,275315132,imu_link,-0.0166015625,0.09967041015625,-0.00103759765625,0.994873046875,[0. 0. 0. 0. 0. 0. 0. 0. 0.],0.0,0.001953125,0.001953125,[0. 0. 0. 0. 0. 0. 0. 0. 0.],-1.953125,-0.34375,9.578125,[0. 0. 0. 0. 0. 0. 0. 0. 0.]
1742662965306894054,1742662965,295390607,imu_link,-0.0166015625,0.09967041015625,-0.00103759765625,0.994873046875,[0. 0. 0. 0. 0. 0. 0. 0. 0.],0.0,0.001953125,0.001953125,[0. 0. 0. 0. 0. 0. 0. 0. 0.],-1.953125,-0.34375,9.578125,[0. 0. 0. 0. 0. 0. 0. 0. 0.]
1742662965319529993,1742662965,315649288,imu_link,-0.0166015625,0.09967041015625,-0.00103759765625,0.994873046875,[0. 0. 0. 0. 0. 0. 0. 0. 0.],0.0,0.001953125,0.001953125,[0. 0. 0. 0. 0. 0. 0. 0. 0.],-1.9140625,-0.3046875,9.58203125,[0. 0. 0. 0. 0. 0. 0. 0. 0.]
1742662965344522201,1742662965,335369556,imu_link,-0.0166015625,0.09967041015625,-0.00103759765625,0.994873046875,[0. 0. 0. 0. 0. 0. 0. 0. 0.],0.0,0.001953125,-0.001953125,[0. 0. 0. 0. 0. 0. 0. 0. 0.],-1.953125,-0.3046875,9.58203125,[0. 0. 0. 0. 0. 0. 0. 0. 0.]
1742662965368740569,1742662965,355393716,imu_link,-0.01654052734375,0.0997314453125,-0.0009765625,0.994873046875,[0. 0. 0. 0. 0. 0. 0. 0. 0.],0.0,0.001953125,-0.001953125,[0. 0. 0. 0. 0. 0. 0. 0. 0.],-1.953125,-0.3046875,9.58203125,[0. 0. 0. 0. 0. 0. 0. 0. 0.]
1742662965383652160,1742662965,375503506,imu_link,-0.01654052734375,0.0997314453125,-0.0009765625,0.994873046875,[0. 0. 0. 0. 0. 0. 0. 0. 0.],0.001953125,-0.001953125,0.0,[0. 0. 0. 0. 0. 0. 0. 0. 0.],-1.953125,-0.34375,9.578125,[0. 0. 0. 0. 0. 0. 0. 0. 0.]
1742662965410392368,1742662965,395546925,imu_link,-0.01654052734375,0.0997314453125,-0.0009765625,0.994873046875,[0. 0. 0. 0. 0. 0. 0. 0. 0.],0.001953125,-0.001953125,0.0,[0. 0. 0. 0. 0. 0. 0. 0. 0.],-1.9140625,-0.34375,9.578125,[0. 0. 0. 0. 0. 0. 0. 0. 0.]
1742662965418924766,1742662965,415318138,imu_link,-0.01654052734375,0.0997314453125,-0.0009765625,0.994873046875,[0. 0. 0. 0. 0. 0. 0. 0. 0.],0.001953125,-0.001953125,0.0,[0. 0. 0. 0. 0. 0. 0. 0. 0.],-1.9140625,-0.34375,9.578125,[0. 0. 0. 0. 0. 0. 0. 0. 0.]
1742662965454833564,1742662965,435415280,imu_link,-0.01654052734375,0.09979248046875,-0.00103759765625,0.994873046875,[0. 0. 0. 0. 0. 0. 0. 0. 0.],-0.001953125,0.001953125,0.0,[0. 0. 0. 0. 0. 0. 0. 0. 0.],-1.9140625,-0.34375,9.578125,[0. 0. 0. 0. 0. 0. 0. 0. 0.]
1742662965460722196,1742662965,457226939,imu_link,-0.01654052734375,0.09979248046875,-0.00103759765625,0.994873046875,[0. 0. 0. 0. 0. 0. 0. 0. 0.],-0.001953125,0.001953125,0.0,[0. 0. 0. 0. 0. 0. 0. 0. 0.],-1.9140625,-0.34375,9.578125,[0. 0. 0. 0. 0. 0. 0. 0. 0.]
1742662965485682756,1742662965,475315747,imu_link,-0.01654052734375,0.09979248046875,-0.00103759765625,0.994873046875,[0. 0. 0. 0. 0. 0. 0. 0. 0.],0.00390625,0.00390625,0.001953125,[0. 0. 0. 0. 0. 0. 0. 0. 0.],-1.953125,-0.3046875,9.58203125,[0. 0. 0. 0. 0. 0. 0. 0. 0.]
1742662965509965606,1742662965,495589668,imu_link,-0.0164794921875,0.09979248046875,-0.00103759765625,0.994873046875,[0. 0. 0. 0. 0. 0. 0. 0. 0.],0.00390625,0.00390625,0.001953125,[0. 0. 0. 0. 0. 0. 0. 0. 0.],-1.953125,-0.3046875,9.58203125,[0. 0. 0. 0. 0. 0. 0. 0. 0.]
1742662965518704211,1742662965,515297362,imu_link,-0.0164794921875,0.09979248046875,-0.00103759765625,0.994873046875,[0. 0. 0. 0. 0. 0. 0. 0. 0.],0.00390625,0.00390625,0.001953125,[0. 0. 0. 0. 0. 0. 0. 0. 0.],-1.953125,-0.3046875,9.58203125,[0. 0. 0. 0. 0. 0. 0. 0. 0.]
1742662965555686333,1742662965,535329559,imu_link,-0.0164794921875,0.09979248046875,-0.0009765625,0.994873046875,[0. 0. 0. 0. 0. 0. 0. 0. 0.],0.001953125,0.001953125,0.001953125,[0. 0. 0. 0. 0. 0. 0. 0. 0.],-1.9140625,-0.34375,9.578125,[0. 0. 0. 0. 0. 0. 0. 0. 0.]
1742662965564992425,1742662965,558235007,imu_link,-0.0164794921875,0.09979248046875,-0.0009765625,0.994873046875,[0. 0. 0. 0. 0. 0. 0. 0. 0.],0.001953125,0.001953125,0.001953125,[0. 0. 0. 0. 0. 0. 0. 0. 0.],-1.9140625,-0.3046875,9.58203125,[0. 0. 0. 0. 0. 0. 0. 0. 0.]
1742662965583598571,1742662965,575391842,imu_link,-0.0164794921875,0.09979248046875,-0.0009765625,0.994873046875,[0. 0. 0. 0. 0. 0. 0. 0. 0.],0.001953125,-0.001953125,0.0,[0. 0. 0. 0. 0. 0. 0. 0. 0.],-1.9140625,-0.3046875,9.58203125,[0. 0. 0. 0. 0. 0. 0. 0. 0.]
1742662965609262379,1742662965,595390502,imu_link,-0.0164794921875,0.0997314453125,-0.0009765625,0.994873046875,[0. 0. 0. 0. 0. 0. 0. 0. 0.],0.001953125,-0.001953125,0.0,[0. 0. 0. 0. 0. 0. 0. 0. 0.],-1.953125,-0.34375,9.578125,[0. 0. 0. 0. 0. 0. 0. 0. 0.]
1742662965618888973,1742662965,615339494,imu_link,-0.0164794921875,0.0997314453125,-0.0009765625,0.994873046875,[0. 0. 0. 0. 0. 0. 0. 0. 0.],0.001953125,-0.001953125,0.0,[0. 0. 0. 0. 0. 0. 0. 0. 0.],-1.953125,-0.34375,9.578125,[0. 0. 0. 0. 0. 0. 0. 0. 0.]
1742662965659621189,1742662965,635331339,imu_link,-0.0164794921875,0.0997314453125,-0.0009765625,0.994873046875,[0. 0. 0. 0. 0. 0. 0. 0. 0.],0.00390625,0.001953125,-0.001953125,[0. 0. 0. 0. 0. 0. 0. 0. 0.],-1.953125,-0.3046875,9.58203125,[0. 0. 0. 0. 0. 0. 0. 0. 0.]
1742662965663943324,1742662965,662242289,imu_link,-0.0164794921875,0.0997314453125,-0.0009765625,0.994873046875,[0. 0. 0. 0. 0. 0. 0. 0. 0.],0.00390625,0.001953125,-0.001953125,[0. 0. 0. 0. 0. 0. 0. 0. 0.],-1.9140625,-0.3046875,9.58203125,[0. 0. 0. 0. 0. 0. 0. 0. 0.]
1742662965683308588,1742662965,675430900,imu_link,-0.0164794921875,0.0997314453125,-0.0009765625,0.994873046875,[0. 0. 0. 0. 0. 0. 0. 0. 0.],-0.001953125,-0.001953125,-0.001953125,[0. 0. 0. 0. 0. 0. 0. 0. 0.],-1.9140625,-0.3046875,9.58203125,[0. 0. 0. 0. 0. 0. 0. 0. 0.]
1742662965709368159,1742662965,695396115,imu_link,-0.0164794921875,0.0997314453125,-0.0009765625,0.994873046875,[0. 0. 0. 0. 0. 0. 0. 0. 0.],-0.001953125,-0.001953125,-0.001953125,[0. 0. 0. 0. 0. 0. 0. 0. 0.],-1.953125,-0.3046875,9.58203125,[0. 0. 0. 0. 0. 0. 0. 0. 0.]
1742662965722745069,1742662965,715313311,imu_link,-0.0164794921875,0.0997314453125,-0.0009765625,0.994873046875,[0. 0. 0. 0. 0. 0. 0. 0. 0.],-0.001953125,-0.001953125,-0.001953125,[0. 0. 0. 0. 0. 0. 0. 0. 0.],-1.953125,-0.3046875,9.58203125,[0. 0. 0. 0. 0. 0. 0. 0. 0.]
1742662965743433476,1742662965,735339007,imu_link,-0.0164794921875,0.0997314453125,-0.0009765625,0.994873046875,[0. 0. 0. 0. 0. 0. 0. 0. 0.],0.0,0.0,-0.001953125,[0. 0. 0. 0. 0. 0. 0. 0. 0.],-1.953125,-0.34375,9.578125,[0. 0. 0. 0. 0. 0. 0. 0. 0.]
1742662965770306370,1742662965,755330778,imu_link,-0.0164794921875,0.0997314453125,-0.00103759765625,0.994873046875,[0. 0. 0. 0. 0. 0. 0. 0. 0.],0.0,0.0,-0.001953125,[0. 0. 0. 0. 0. 0. 0. 0. 0.],-1.953125,-0.34375,9.578125,[0. 0. 0. 0. 0. 0. 0. 0. 0.]
1742662965786364454,1742662965,775300771,imu_link,-0.0164794921875,0.0997314453125,-0.00103759765625,0.994873046875,[0. 0. 0. 0. 0. 0. 0. 0. 0.],-0.001953125,0.0,0.001953125,[0. 0. 0. 0. 0. 0. 0. 0. 0.],-1.9140625,-0.3046875,9.58203125,[0. 0. 0. 0. 0. 0. 0. 0. 0.]
1742662965807995777,1742662965,795385653,imu_link,-0.0164794921875,0.0997314453125,-0.00103759765625,0.994873046875,[0. 0. 0. 0. 0. 0. 0. 0. 0.],-0.001953125,0.0,0.001953125,[0. 0. 0. 0. 0. 0. 0. 0. 0.],-1.9140625,-0.3046875,9.58203125,[0. 0. 0. 0. 0. 0. 0. 0. 0.]
1742662965822670792,1742662965,815443147,imu_link,-0.0164794921875,0.0997314453125,-0.00103759765625,0.994873046875,[0. 0. 0. 0. 0. 0. 0. 0. 0.],-0.001953125,0.0,0.001953125,[0. 0. 0. 0. 0. 0. 0. 0. 0.],-1.9140625,-0.3046875,9.58203125,[0. 0. 0. 0. 0. 0. 0. 0. 0.]
1742662965843086734,1742662965,835319731,imu_link,-0.0164794921875,0.0997314453125,-0.00103759765625,0.994873046875,[0. 0. 0. 0. 0. 0. 0. 0. 0.],0.001953125,0.0,-0.001953125,[0. 0. 0. 0. 0. 0. 0. 0. 0.],-1.9140625,-0.3046875,9.58203125,[0. 0. 0. 0. 0. 0. 0. 0. 0.]
1742662965861205356,1742662965,857807897,imu_link,-0.0164794921875,0.0997314453125,-0.00103759765625,0.994873046875,[0. 0. 0. 0. 0. 0. 0. 0. 0.],0.001953125,0.0,-0.001953125,[0. 0. 0. 0. 0. 0. 0. 0. 0.],-1.953125,-0.3046875,9.58203125,[0. 0. 0. 0. 0. 0. 0. 0. 0.]
1742662965885753561,1742662965,875316717,imu_link,-0.0164794921875,0.0997314453125,-0.00103759765625,0.994873046875,[0. 0. 0. 0. 0. 0. 0. 0. 0.],0.001953125,-0.001953125,0.001953125,[0. 0. 0. 0. 0. 0. 0. 0. 0.],-1.953125,-0.34375,9.578125,[0. 0. 0. 0. 0. 0. 0. 0. 0.]
1742662965906028982,1742662965,895385933,imu_link,-0.01641845703125,0.0997314453125,-0.0009765625,0.994873046875,[0. 0. 0. 0. 0. 0. 0. 0. 0.],0.001953125,-0.001953125,0.001953125,[0. 0. 0. 0. 0. 0. 0. 0. 0.],-1.953125,-0.34375,9.578125,[0. 0. 0. 0. 0. 0. 0. 0. 0.]
1742662965922588441,1742662965,915360463,imu_link,-0.01641845703125,0.0997314453125,-0.0009765625,0.994873046875,[0. 0. 0. 0. 0. 0. 0. 0. 0.],0.001953125,-0.001953125,0.001953125,[0. 0. 0. 0. 0. 0. 0. 0. 0.],-1.9140625,-0.34375,9.578125,[0. 0. 0. 0. 0. 0. 0. 0. 0.]
1742662965953843323,1742662965,935380789,imu_link,-0.01641845703125,0.09967041015625,-0.0009765625,0.994873046875,[0. 0. 0. 0. 0. 0. 0. 0. 0.],0.0,0.0,0.0,[0. 0. 0. 0. 0. 0. 0. 0. 0.],-1.953125,-0.3046875,9.58203125,[0. 0. 0. 0. 0. 0. 0. 0. 0.]
1742662965959412637,1742662965,956058493,imu_link,-0.01641845703125,0.09967041015625,-0.0009765625,0.994873046875,[0. 0. 0. 0. 0. 0. 0. 0. 0.],0.0,0.0,0.0,[0. 0. 0. 0. 0. 0. 0. 0. 0.],-1.953125,-0.3046875,9.58203125,[0. 0. 0. 0. 0. 0. 0. 0. 0.]
1742662965987252077,1742662965,975349071,imu_link,-0.01641845703125,0.09967041015625,-0.0009765625,0.994873046875,[0. 0. 0. 0. 0. 0. 0. 0. 0.],0.0,0.0,0.0,[0. 0. 0. 0. 0. 0. 0. 0. 0.],-1.953125,-0.3046875,9.58203125,[0. 0. 0. 0. 0. 0. 0. 0. 0.]
1742662966010537380,1742662965,995516733,imu_link,-0.01641845703125,0.09967041015625,-0.0009765625,0.994873046875,[0. 0. 0. 0. 0. 0. 0. 0. 0.],0.0,0.0,0.0,[0. 0. 0. 0. 0. 0. 0. 0. 0.],-1.953125,-0.34375,9.578125,[0. 0. 0. 0. 0. 0. 0. 0. 0.]
1742662966018660812,1742662966,15328483,imu_link,-0.01641845703125,0.09967041015625,-0.0009765625,0.994873046875,[0. 0. 0. 0. 0. 0. 0. 0. 0.],0.0,0.0,0.0,[0. 0. 0. 0. 0. 0. 0. 0. 0.],-1.953125,-0.34375,9.578125,[0. 0. 0. 0. 0. 0. 0. 0. 0.]
1742662966055677712,1742662966,35375457,imu_link,-0.01641845703125,0.09967041015625,-0.0009765625,0.994873046875,[0. 0. 0. 0. 0. 0. 0. 0. 0.],0.0,0.0,0.0,[0. 0. 0. 0. 0. 0. 0. 0. 0.],-1.9140625,-0.3046875,9.58203125,[0. 0. 0. 0. 0. 0. 0. 0. 0.]
1742662966061591141,1742662966,58266831,imu_link,-0.01641845703125,0.09967041015625,-0.0009765625,0.994873046875,[0. 0. 0. 0. 0. 0. 0. 0. 0.],0.0,0.0,0.0,[0. 0. 0. 0. 0. 0. 0. 0. 0.],-1.9140625,-0.3046875,9.58203125,[0. 0. 0. 0. 0. 0. 0. 0. 0.]
1742662966087298097,1742662966,75371313,imu_link,-0.01641845703125,0.09967041015625,-0.0009765625,0.994873046875,[0. 0. 0. 0. 0. 0. 0. 0. 0.],0.0,0.0,0.0,[0. 0. 0. 0. 0. 0. 0. 0. 0.],-1.953125,-0.3046875,9.58203125,[0. 0. 0. 0. 0. 0. 0. 0. 0.]
1742662966108894865,1742662966,95352028,imu_link,-0.01641845703125,0.09967041015625,-0.0009765625,0.994873046875,[0. 0. 0. 0. 0. 0. 0. 0. 0.],0.0,0.0,0.0,[0. 0. 0. 0. 0. 0. 0. 0. 0.],-1.953125,-0.34375,9.578125,[0. 0. 0. 0. 0. 0. 0. 0. 0.]
1742662966118695832,1742662966,115342021,imu_link,-0.01641845703125,0.09967041015625,-0.0009765625,0.994873046875,[0. 0. 0. 0. 0. 0. 0. 0. 0.],0.0,0.0,0.0,[0. 0. 0. 0. 0. 0. 0. 0. 0.],-1.953125,-0.34375,9.578125,[0. 0. 0. 0. 0. 0. 0. 0. 0.]
1742662966157211228,1742662966,135389014,imu_link,-0.01641845703125,0.09967041015625,-0.0009765625,0.994873046875,[0. 0. 0. 0. 0. 0. 0. 0. 0.],0.0,0.0,0.0,[0. 0. 0. 0. 0. 0. 0. 0. 0.],-1.953125,-0.34375,9.61328125,[0. 0. 0. 0. 0. 0. 0. 0. 0.]
1742662966165708627,1742662966,163963480,imu_link,-0.01641845703125,0.09967041015625,-0.0009765625,0.994873046875,[0. 0. 0. 0. 0. 0. 0. 0. 0.],0.0,0.0,0.0,[0. 0. 0. 0. 0. 0. 0. 0. 0.],-1.953125,-0.3046875,9.54296875,[0. 0. 0. 0. 0. 0. 0. 0. 0.]
1742662966183113853,1742662966,175534742,imu_link,-0.01641845703125,0.09967041015625,-0.0009765625,0.994873046875,[0. 0. 0. 0. 0. 0. 0. 0. 0.],0.0,0.0,0.0,[0. 0. 0. 0. 0. 0. 0. 0. 0.],-1.953125,-0.3046875,9.54296875,[0. 0. 0. 0. 0. 0. 0. 0. 0.]
1742662966210685920,1742662966,195427030,imu_link,-0.01641845703125,0.09967041015625,-0.0009765625,0.994873046875,[0. 0. 0. 0. 0. 0. 0. 0. 0.],0.0,0.0,0.0,[0. 0. 0. 0. 0. 0. 0. 0. 0.],-1.9140625,-0.34375,9.578125,[0. 0. 0. 0. 0. 0. 0. 0. 0.]
1742662966218817000,1742662966,215351151,imu_link,-0.01641845703125,0.09967041015625,-0.0009765625,0.994873046875,[0. 0. 0. 0. 0. 0. 0. 0. 0.],0.0,0.0,0.0,[0. 0. 0. 0. 0. 0. 0. 0. 0.],-1.9140625,-0.34375,9.578125,[0. 0. 0. 0. 0. 0. 0. 0. 0.]
1742662966261136305,1742662966,235507461,imu_link,-0.01641845703125,0.09967041015625,-0.0009765625,0.994873046875,[0. 0. 0. 0. 0. 0. 0. 0. 0.],0.0,0.0,0.0,[0. 0. 0. 0. 0. 0. 0. 0. 0.],-1.953125,-0.3046875,9.58203125,[0. 0. 0. 0. 0. 0. 0. 0. 0.]
1742662966265310383,1742662966,262886878,imu_link,-0.01641845703125,0.09967041015625,-0.0009765625,0.994873046875,[0. 0. 0. 0. 0. 0. 0. 0. 0.],0.0,0.0,0.0,[0. 0. 0. 0. 0. 0. 0. 0. 0.],-1.953125,-0.3046875,9.54296875,[0. 0. 0. 0. 0. 0. 0. 0. 0.]
1742662966284676832,1742662966,275382223,imu_link,-0.01641845703125,0.09967041015625,-0.0009765625,0.994873046875,[0. 0. 0. 0. 0. 0. 0. 0. 0.],0.0,0.0,0.0,[0. 0. 0. 0. 0. 0. 0. 0. 0.],-1.953125,-0.3046875,9.54296875,[0. 0. 0. 0. 0. 0. 0. 0. 0.]
1742662966308554752,1742662966,304930124,imu_link,-0.01641845703125,0.0997314453125,-0.0009765625,0.994873046875,[0. 0. 0. 0. 0. 0. 0. 0. 0.],0.0,0.0,0.0,[0. 0. 0. 0. 0. 0. 0. 0. 0.],-1.9140625,-0.3046875,9.58203125,[0. 0. 0. 0. 0. 0. 0. 0. 0.]
1742662966331919852,1742662966,316392385,imu_link,-0.01641845703125,0.0997314453125,-0.0009765625,0.994873046875,[0. 0. 0. 0. 0. 0. 0. 0. 0.],0.0,0.0,0.0,[0. 0. 0. 0. 0. 0. 0. 0. 0.],-1.9140625,-0.3046875,9.58203125,[0. 0. 0. 0. 0. 0. 0. 0. 0.]
1742662966339088386,1742662966,335478794,imu_link,-0.01641845703125,0.0997314453125,-0.0009765625,0.994873046875,[0. 0. 0. 0. 0. 0. 0. 0. 0.],0.0,0.0,0.0,[0. 0. 0. 0. 0. 0. 0. 0. 0.],-1.9140625,-0.3046875,9.58203125,[0. 0. 0. 0. 0. 0. 0. 0. 0.]
1742662966378999166,1742662966,355695919,imu_link,-0.01641845703125,0.0997314453125,-0.0009765625,0.994873046875,[0. 0. 0. 0. 0. 0. 0. 0. 0.],0.0,0.0,0.0,[0. 0. 0. 0. 0. 0. 0. 0. 0.],-1.9140625,-0.34375,9.578125,[0. 0. 0. 0. 0. 0. 0. 0. 0.]
1742662966388574409,1742662966,384900521,imu_link,-0.01641845703125,0.0997314453125,-0.0009765625,0.994873046875,[0. 0. 0. 0. 0. 0. 0. 0. 0.],0.0,0.0,0.0,[0. 0. 0. 0. 0. 0. 0. 0. 0.],-1.953125,-0.34375,9.578125,[0. 0. 0. 0. 0. 0. 0. 0. 0.]
1742662966409026406,1742662966,395531440,imu_link,-0.01641845703125,0.0997314453125,-0.0009765625,0.994873046875,[0. 0. 0. 0. 0. 0. 0. 0. 0.],0.0,0.0,0.0,[0. 0. 0. 0. 0. 0. 0. 0. 0.],-1.953125,-0.34375,9.578125,[0. 0. 0. 0. 0. 0. 0. 0. 0.]
1742662966436387638,1742662966,419785234,imu_link,-0.01641845703125,0.0997314453125,-0.0009765625,0.994873046875,[0. 0. 0. 0. 0. 0. 0. 0. 0.],0.0,0.0,0.0,[0. 0. 0. 0. 0. 0. 0. 0. 0.],-1.9140625,-0.3046875,9.58203125,[0. 0. 0. 0. 0. 0. 0. 0. 0.]
1742662966458854932,1742662966,442612328,imu_link,-0.01641845703125,0.0997314453125,-0.0009765625,0.994873046875,[0. 0. 0. 0. 0. 0. 0. 0. 0.],0.0,0.0,0.0,[0. 0. 0. 0. 0. 0. 0. 0. 0.],-1.9140625,-0.3046875,9.58203125,[0. 0. 0. 0. 0. 0. 0. 0. 0.]
1742662966467956096,1742662966,464126577,imu_link,-0.01641845703125,0.0997314453125,-0.0009765625,0.994873046875,[0. 0. 0. 0. 0. 0. 0. 0. 0.],0.0,0.0,0.0,[0. 0. 0. 0. 0. 0. 0. 0. 0.],-1.953125,-0.34375,9.578125,[0. 0. 0. 0. 0. 0. 0. 0. 0.]
1742662966487011653,1742662966,475331761,imu_link,-0.01641845703125,0.0997314453125,-0.0009765625,0.994873046875,[0. 0. 0. 0. 0. 0. 0. 0. 0.],0.0,0.0,0.0,[0. 0. 0. 0. 0. 0. 0. 0. 0.],-1.953125,-0.34375,9.578125,[0. 0. 0. 0. 0. 0. 0. 0. 0.]
1742662966511808767,1742662966,495481459,imu_link,-0.01641845703125,0.0997314453125,-0.0009765625,0.994873046875,[0. 0. 0. 0. 0. 0. 0. 0. 0.],0.0,0.0,0.0,[0. 0. 0. 0. 0. 0. 0. 0. 0.],-1.953125,-0.34375,9.578125,[0. 0. 0. 0. 0. 0. 0. 0. 0.]
1742662966518600593,1742662966,515297079,imu_link,-0.01641845703125,0.0997314453125,-0.0009765625,0.994873046875,[0. 0. 0. 0. 0. 0. 0. 0. 0.],0.0,0.0,0.0,[0. 0. 0. 0. 0. 0. 0. 0. 0.],-1.953125,-0.34375,9.578125,[0. 0. 0. 0. 0. 0. 0. 0. 0.]
1742662966553031617,1742662966,535411814,imu_link,-0.01641845703125,0.0997314453125,-0.0009765625,0.994873046875,[0. 0. 0. 0. 0. 0. 0. 0. 0.],0.0,0.0,0.0,[0. 0. 0. 0. 0. 0. 0. 0. 0.],-1.953125,-0.3046875,9.58203125,[0. 0. 0. 0. 0. 0. 0. 0. 0.]
1742662966558651061,1742662966,555375566,imu_link,-0.01641845703125,0.0997314453125,-0.0009765625,0.994873046875,[0. 0. 0. 0. 0. 0. 0. 0. 0.],0.0,0.0,0.0,[0. 0. 0. 0. 0. 0. 0. 0. 0.],-1.953125,-0.3046875,9.58203125,[0. 0. 0. 0. 0. 0. 0. 0. 0.]
1742662966587393177,1742662966,575327317,imu_link,-0.01641845703125,0.0997314453125,-0.0009765625,0.994873046875,[0. 0. 0. 0. 0. 0. 0. 0. 0.],0.0,0.0,0.0,[0. 0. 0. 0. 0. 0. 0. 0. 0.],-1.9140625,-0.34375,9.578125,[0. 0. 0. 0. 0. 0. 0. 0. 0.]
1742662966608999167,1742662966,595304236,imu_link,-0.01641845703125,0.09967041015625,-0.0009765625,0.994873046875,[0. 0. 0. 0. 0. 0. 0. 0. 0.],0.0,0.0,0.0,[0. 0. 0. 0. 0. 0. 0. 0. 0.],-1.953125,-0.34375,9.578125,[0. 0. 0. 0. 0. 0. 0. 0. 0.]
1742662966618907505,1742662966,615298136,imu_link,-0.01641845703125,0.09967041015625,-0.0009765625,0.994873046875,[0. 0. 0. 0. 0. 0. 0. 0. 0.],0.0,0.0,0.0,[0. 0. 0. 0. 0. 0. 0. 0. 0.],-1.953125,-0.34375,9.578125,[0. 0. 0. 0. 0. 0. 0. 0. 0.]
1742662966656179834,1742662966,635404630,imu_link,-0.01641845703125,0.09967041015625,-0.0009765625,0.994873046875,[0. 0. 0. 0. 0. 0. 0. 0. 0.],0.0,0.0,0.0,[0. 0. 0. 0. 0. 0. 0. 0. 0.],-1.953125,-0.3046875,9.58203125,[0. 0. 0. 0. 0. 0. 0. 0. 0.]
1742662966660835268,1742662966,658771081,imu_link,-0.01641845703125,0.09967041015625,-0.0009765625,0.994873046875,[0. 0. 0. 0. 0. 0. 0. 0. 0.],0.0,0.0,0.0,[0. 0. 0. 0. 0. 0. 0. 0. 0.],-1.953125,-0.3046875,9.58203125,[0. 0. 0. 0. 0. 0. 0. 0. 0.]
1742662966686512928,1742662966,675343096,imu_link,-0.01641845703125,0.09967041015625,-0.0009765625,0.994873046875,[0. 0. 0. 0. 0. 0. 0. 0. 0.],0.0,0.0,0.0,[0. 0. 0. 0. 0. 0. 0. 0. 0.],-1.9140625,-0.34375,9.578125,[0. 0. 0. 0. 0. 0. 0. 0. 0.]
1742662966709963233,1742662966,695311811,imu_link,-0.0164794921875,0.09967041015625,-0.0009765625,0.994873046875,[0. 0. 0. 0. 0. 0. 0. 0. 0.],0.0,0.0,0.0,[0. 0. 0. 0. 0. 0. 0. 0. 0.],-1.953125,-0.34375,9.578125,[0. 0. 0. 0. 0. 0. 0. 0. 0.]
1742662966718637225,1742662966,715307989,imu_link,-0.0164794921875,0.09967041015625,-0.0009765625,0.994873046875,[0. 0. 0. 0. 0. 0. 0. 0. 0.],0.0,0.0,0.0,[0. 0. 0. 0. 0. 0. 0. 0. 0.],-1.953125,-0.34375,9.578125,[0. 0. 0. 0. 0. 0. 0. 0. 0.]
1742662966756146112,1742662966,735399168,imu_link,-0.0164794921875,0.09967041015625,-0.0009765625,0.994873046875,[0. 0. 0. 0. 0. 0. 0. 0. 0.],0.0,0.0,0.0,[0. 0. 0. 0. 0. 0. 0. 0. 0.],-1.953125,-0.34375,9.578125,[0. 0. 0. 0. 0. 0. 0. 0. 0.]
1742662966765531797,1742662966,762585490,imu_link,-0.0164794921875,0.09967041015625,-0.0009765625,0.994873046875,[0. 0. 0. 0. 0. 0. 0. 0. 0.],0.0,0.0,0.0,[0. 0. 0. 0. 0. 0. 0. 0. 0.],-1.953125,-0.34375,9.578125,[0. 0. 0. 0. 0. 0. 0. 0. 0.]
1742662966782039089,1742662966,775288504,imu_link,-0.0164794921875,0.09967041015625,-0.0009765625,0.994873046875,[0. 0. 0. 0. 0. 0. 0. 0. 0.],-0.001953125,-0.001953125,0.0,[0. 0. 0. 0. 0. 0. 0. 0. 0.],-1.953125,-0.34375,9.578125,[0. 0. 0. 0. 0. 0. 0. 0. 0.]
1742662966809328246,1742662966,795350942,imu_link,-0.0164794921875,0.09967041015625,-0.00103759765625,0.994873046875,[0. 0. 0. 0. 0. 0. 0. 0. 0.],-0.001953125,-0.001953125,0.0,[0. 0. 0. 0. 0. 0. 0. 0. 0.],-1.953125,-0.34375,9.578125,[0. 0. 0. 0. 0. 0. 0. 0. 0.]
1742662966818928155,1742662966,815462213,imu_link,-0.0164794921875,0.09967041015625,-0.00103759765625,0.994873046875,[0. 0. 0. 0. 0. 0. 0. 0. 0.],-0.001953125,-0.001953125,0.0,[0. 0. 0. 0. 0. 0. 0. 0. 0.],-1.953125,-0.34375,9.578125,[0. 0. 0. 0. 0. 0. 0. 0. 0.]
1742662966860150745,1742662966,835402187,imu_link,-0.01654052734375,0.09967041015625,-0.00103759765625,0.994873046875,[0. 0. 0. 0. 0. 0. 0. 0. 0.],-0.001953125,-0.001953125,0.001953125,[0. 0. 0. 0. 0. 0. 0. 0. 0.],-1.953125,-0.34375,9.578125,[0. 0. 0. 0. 0. 0. 0. 0. 0.]
1742662966864428361,1742662966,861779631,imu_link,-0.01654052734375,0.09967041015625,-0.00103759765625,0.994873046875,[0. 0. 0. 0. 0. 0. 0. 0. 0.],-0.001953125,-0.001953125,0.001953125,[0. 0. 0. 0. 0. 0. 0. 0. 0.],-1.9140625,-0.34375,9.578125,[0. 0. 0. 0. 0. 0. 0. 0. 0.]
1742662966882459149,1742662966,875328653,imu_link,-0.01654052734375,0.09967041015625,-0.00103759765625,0.994873046875,[0. 0. 0. 0. 0. 0. 0. 0. 0.],-0.001953125,0.001953125,0.0,[0. 0. 0. 0. 0. 0. 0. 0. 0.],-1.9140625,-0.34375,9.578125,[0. 0. 0. 0. 0. 0. 0. 0. 0.]
1742662966909921178,1742662966,895386924,imu_link,-0.0166015625,0.09967041015625,-0.00103759765625,0.994873046875,[0. 0. 0. 0. 0. 0. 0. 0. 0.],-0.001953125,0.001953125,0.0,[0. 0. 0. 0. 0. 0. 0. 0. 0.],-1.9140625,-0.3046875,9.54296875,[0. 0. 0. 0. 0. 0. 0. 0. 0.]
1742662966925870816,1742662966,915333824,imu_link,-0.0166015625,0.09967041015625,-0.00103759765625,0.994873046875,[0. 0. 0. 0. 0. 0. 0. 0. 0.],-0.001953125,0.001953125,0.0,[0. 0. 0. 0. 0. 0. 0. 0. 0.],-1.9140625,-0.3046875,9.54296875,[0. 0. 0. 0. 0. 0. 0. 0. 0.]
1742662966938927000,1742662966,935509207,imu_link,-0.0166015625,0.09967041015625,-0.00103759765625,0.994873046875,[0. 0. 0. 0. 0. 0. 0. 0. 0.],-0.001953125,0.001953125,-0.001953125,[0. 0. 0. 0. 0. 0. 0. 0. 0.],-1.953125,-0.3046875,9.58203125,[0. 0. 0. 0. 0. 0. 0. 0. 0.]
1742662966969374188,1742662966,955360199,imu_link,-0.01666259765625,0.0997314453125,-0.00103759765625,0.994873046875,[0. 0. 0. 0. 0. 0. 0. 0. 0.],-0.001953125,0.001953125,-0.001953125,[0. 0. 0. 0. 0. 0. 0. 0. 0.],-1.953125,-0.34375,9.5390625,[0. 0. 0. 0. 0. 0. 0. 0. 0.]
1742662966987224530,1742662966,975310210,imu_link,-0.01666259765625,0.0997314453125,-0.00103759765625,0.994873046875,[0. 0. 0. 0. 0. 0. 0. 0. 0.],0.0,-0.001953125,0.001953125,[0. 0. 0. 0. 0. 0. 0. 0. 0.],-1.9140625,-0.3046875,9.58203125,[0. 0. 0. 0. 0. 0. 0. 0. 0.]
1742662967008570296,1742662966,995437167,imu_link,-0.01666259765625,0.0997314453125,-0.00103759765625,0.994873046875,[0. 0. 0. 0. 0. 0. 0. 0. 0.],0.0,-0.001953125,0.001953125,[0. 0. 0. 0. 0. 0. 0. 0. 0.],-1.9140625,-0.3046875,9.58203125,[0. 0. 0. 0. 0. 0. 0. 0. 0.]
1742662967025641037,1742662967,15303306,imu_link,-0.01666259765625,0.0997314453125,-0.00103759765625,0.994873046875,[0. 0. 0. 0. 0. 0. 0. 0. 0.],0.0,-0.001953125,0.001953125,[0. 0. 0. 0. 0. 0. 0. 0. 0.],-1.9140625,-0.34375,9.578125,[0. 0. 0. 0. 0. 0. 0. 0. 0.]
1742662967038834130,1742662967,35394855,imu_link,-0.01666259765625,0.0997314453125,-0.00103759765625,0.994873046875,[0. 0. 0. 0. 0. 0. 0. 0. 0.],-0.001953125,0.0,-0.001953125,[0. 0. 0. 0. 0. 0. 0. 0. 0.],-1.9140625,-0.34375,9.578125,[0. 0. 0. 0. 0. 0. 0. 0. 0.]
1742662967070051769,1742662967,55535516,imu_link,-0.01666259765625,0.0997314453125,-0.00103759765625,0.994873046875,[0. 0. 0. 0. 0. 0. 0. 0. 0.],-0.001953125,0.0,-0.001953125,[0. 0. 0. 0. 0. 0. 0. 0. 0.],-1.953125,-0.34375,9.578125,[0. 0. 0. 0. 0. 0. 0. 0. 0.]
1742662967087139381,1742662967,75406692,imu_link,-0.01666259765625,0.0997314453125,-0.00103759765625,0.994873046875,[0. 0. 0. 0. 0. 0. 0. 0. 0.],0.0,0.001953125,0.00390625,[0. 0. 0. 0. 0. 0. 0. 0. 0.],-1.953125,-0.34375,9.6875,[0. 0. 0. 0. 0. 0. 0. 0. 0.]
1742662967115448863,1742662967,98026507,imu_link,-0.0167236328125,0.0997314453125,-0.00103759765625,0.994873046875,[0. 0. 0. 0. 0. 0. 0. 0. 0.],0.0,0.001953125,0.00390625,[0. 0. 0. 0. 0. 0. 0. 0. 0.],-1.953125,-0.34375,9.5,[0. 0. 0. 0. 0. 0. 0. 0. 0.]
1742662967129867190,1742662967,118411059,imu_link,-0.0167236328125,0.0997314453125,-0.00103759765625,0.994873046875,[0. 0. 0. 0. 0. 0. 0. 0. 0.],-0.001953125,0.0,0.00390625,[0. 0. 0. 0. 0. 0. 0. 0. 0.],-1.953125,-0.34375,9.5,[0. 0. 0. 0. 0. 0. 0. 0. 0.]
1742662967143081153,1742662967,135459763,imu_link,-0.0167236328125,0.0997314453125,-0.00103759765625,0.994873046875,[0. 0. 0. 0. 0. 0. 0. 0. 0.],-0.001953125,0.0,0.00390625,[0. 0. 0. 0. 0. 0. 0. 0. 0.],-1.953125,-0.34375,9.5,[0. 0. 0. 0. 0. 0. 0. 0. 0.]
1742662967162248656,1742662967,160048967,imu_link,-0.01666259765625,0.0997314453125,-0.00103759765625,0.994873046875,[0. 0. 0. 0. 0. 0. 0. 0. 0.],-0.001953125,0.0,0.00390625,[0. 0. 0. 0. 0. 0. 0. 0. 0.],-1.9140625,-0.3046875,9.609375,[0. 0. 0. 0. 0. 0. 0. 0. 0.]
1742662967188566969,1742662967,175576379,imu_link,-0.01666259765625,0.0997314453125,-0.00103759765625,0.994873046875,[0. 0. 0. 0. 0. 0. 0. 0. 0.],-0.001953125,-0.001953125,-0.001953125,[0. 0. 0. 0. 0. 0. 0. 0. 0.],-1.953125,-0.34375,9.5390625,[0. 0. 0. 0. 0. 0. 0. 0. 0.]
1742662967211724771,1742662967,195314424,imu_link,-0.01666259765625,0.0997314453125,-0.00103759765625,0.994873046875,[0. 0. 0. 0. 0. 0. 0. 0. 0.],-0.001953125,-0.001953125,-0.001953125,[0. 0. 0. 0. 0. 0. 0. 0. 0.],-1.953125,-0.34375,9.578125,[0. 0. 0. 0. 0. 0. 0. 0. 0.]
1742662967218632968,1742662967,215297158,imu_link,-0.01666259765625,0.0997314453125,-0.00103759765625,0.994873046875,[0. 0. 0. 0. 0. 0. 0. 0. 0.],-0.001953125,-0.001953125,-0.001953125,[0. 0. 0. 0. 0. 0. 0. 0. 0.],-1.953125,-0.34375,9.578125,[0. 0. 0. 0. 0. 0. 0. 0. 0.]
1742662967255900149,1742662967,235391373,imu_link,-0.0167236328125,0.09967041015625,-0.00103759765625,0.994873046875,[0. 0. 0. 0. 0. 0. 0. 0. 0.],-0.001953125,-0.00390625,0.001953125,[0. 0. 0. 0. 0. 0. 0. 0. 0.],-1.953125,-0.34375,9.578125,[0. 0. 0. 0. 0. 0. 0. 0. 0.]
1742662967260367748,1742662967,258461378,imu_link,-0.0167236328125,0.09967041015625,-0.00103759765625,0.994873046875,[0. 0. 0. 0. 0. 0. 0. 0. 0.],-0.001953125,-0.00390625,0.001953125,[0. 0. 0. 0. 0. 0. 0. 0. 0.],-1.953125,-0.34375,9.578125,[0. 0. 0. 0. 0. 0. 0. 0. 0.]
1742662967286927064,1742662967,275411099,imu_link,-0.0167236328125,0.09967041015625,-0.00103759765625,0.994873046875,[0. 0. 0. 0. 0. 0. 0. 0. 0.],-0.00390625,-0.001953125,0.001953125,[0. 0. 0. 0. 0. 0. 0. 0. 0.],-1.953125,-0.34375,9.578125,[0. 0. 0. 0. 0. 0. 0. 0. 0.]
1742662967309215357,1742662967,295311906,imu_link,-0.01678466796875,0.09967041015625,-0.00103759765625,0.994873046875,[0. 0. 0. 0. 0. 0. 0. 0. 0.],-0.00390625,-0.001953125,0.001953125,[0. 0. 0. 0. 0. 0. 0. 0. 0.],-1.9140625,-0.3046875,9.58203125,[0. 0. 0. 0. 0. 0. 0. 0. 0.]
1742662967318964471,1742662967,315470881,imu_link,-0.01678466796875,0.09967041015625,-0.00103759765625,0.994873046875,[0. 0. 0. 0. 0. 0. 0. 0. 0.],-0.00390625,-0.001953125,0.001953125,[0. 0. 0. 0. 0. 0. 0. 0. 0.],-1.9140625,-0.3046875,9.58203125,[0. 0. 0. 0. 0. 0. 0. 0. 0.]
1742662967355850222,1742662967,335392614,imu_link,-0.01678466796875,0.09967041015625,-0.00103759765625,0.994873046875,[0. 0. 0. 0. 0. 0. 0. 0. 0.],-0.001953125,-0.001953125,0.00390625,[0. 0. 0. 0. 0. 0. 0. 0. 0.],-1.953125,-0.34375,9.578125,[0. 0. 0. 0. 0. 0. 0. 0. 0.]
1742662967365408112,1742662967,361805521,imu_link,-0.01678466796875,0.09967041015625,-0.00103759765625,0.994873046875,[0. 0. 0. 0. 0. 0. 0. 0. 0.],-0.001953125,-0.001953125,0.00390625,[0. 0. 0. 0. 0. 0. 0. 0. 0.],-1.953125,-0.34375,9.578125,[0. 0. 0. 0. 0. 0. 0. 0. 0.]
1742662967381950886,1742662967,375450618,imu_link,-0.01678466796875,0.09967041015625,-0.00103759765625,0.994873046875,[0. 0. 0. 0. 0. 0. 0. 0. 0.],0.001953125,-0.001953125,0.0,[0. 0. 0. 0. 0. 0. 0. 0. 0.],-1.953125,-0.34375,9.578125,[0. 0. 0. 0. 0. 0. 0. 0. 0.]
1742662967409312043,1742662967,395385184,imu_link,-0.016845703125,0.09967041015625,-0.00103759765625,0.994873046875,[0. 0. 0. 0. 0. 0. 0. 0. 0.],0.001953125,-0.001953125,0.0,[0. 0. 0. 0. 0. 0. 0. 0. 0.],-1.953125,-0.34375,9.5390625,[0. 0. 0. 0. 0. 0. 0. 0. 0.]
1742662967418681968,1742662967,415300306,imu_link,-0.016845703125,0.09967041015625,-0.00103759765625,0.994873046875,[0. 0. 0. 0. 0. 0. 0. 0. 0.],0.001953125,-0.001953125,0.0,[0. 0. 0. 0. 0. 0. 0. 0. 0.],-1.953125,-0.34375,9.5390625,[0. 0. 0. 0. 0. 0. 0. 0. 0.]
1742662967460242765,1742662967,435394355,imu_link,-0.01678466796875,0.09967041015625,-0.0009765625,0.994873046875,[0. 0. 0. 0. 0. 0. 0. 0. 0.],0.001953125,0.0,0.00390625,[0. 0. 0. 0. 0. 0. 0. 0. 0.],-1.953125,-0.3046875,9.58203125,[0. 0. 0. 0. 0. 0. 0. 0. 0.]
1742662967465847246,1742662967,462448491,imu_link,-0.01678466796875,0.09967041015625,-0.0009765625,0.994873046875,[0. 0. 0. 0. 0. 0. 0. 0. 0.],0.001953125,0.0,0.00390625,[0. 0. 0. 0. 0. 0. 0. 0. 0.],-1.953125,-0.3046875,9.58203125,[0. 0. 0. 0. 0. 0. 0. 0. 0.]
1742662967481893237,1742662967,475392469,imu_link,-0.01678466796875,0.09967041015625,-0.0009765625,0.994873046875,[0. 0. 0. 0. 0. 0. 0. 0. 0.],-0.001953125,0.0,-0.001953125,[0. 0. 0. 0. 0. 0. 0. 0. 0.],-1.953125,-0.3046875,9.58203125,[0. 0. 0. 0. 0. 0. 0. 0. 0.]
1742662967508597906,1742662967,495469166,imu_link,-0.016845703125,0.09967041015625,-0.0009765625,0.994873046875,[0. 0. 0. 0. 0. 0. 0. 0. 0.],-0.001953125,0.0,-0.001953125,[0. 0. 0. 0. 0. 0. 0. 0. 0.],-1.953125,-0.34375,9.578125,[0. 0. 0. 0. 0. 0. 0. 0. 0.]
1742662967526773548,1742662967,515324009,imu_link,-0.016845703125,0.09967041015625,-0.0009765625,0.994873046875,[0. 0. 0. 0. 0. 0. 0. 0. 0.],-0.001953125,0.0,-0.001953125,[0. 0. 0. 0. 0. 0. 0. 0. 0.],-1.953125,-0.34375,9.578125,[0. 0. 0. 0. 0. 0. 0. 0. 0.]
1742662967538993779,1742662967,535322002,imu_link,-0.016845703125,0.09967041015625,-0.0009765625,0.994873046875,[0. 0. 0. 0. 0. 0. 0. 0. 0.],-0.001953125,0.001953125,0.0,[0. 0. 0. 0. 0. 0. 0. 0. 0.],-1.953125,-0.34375,9.578125,[0. 0. 0. 0. 0. 0. 0. 0. 0.]
1742662967568737034,1742662967,555371180,imu_link,-0.01690673828125,0.0997314453125,-0.00103759765625,0.994873046875,[0. 0. 0. 0. 0. 0. 0. 0. 0.],-0.001953125,0.001953125,0.0,[0. 0. 0. 0. 0. 0. 0. 0. 0.],-1.9140625,-0.3046875,9.58203125,[0. 0. 0. 0. 0. 0. 0. 0. 0.]
1742662967586082500,1742662967,575377321,imu_link,-0.01690673828125,0.0997314453125,-0.00103759765625,0.994873046875,[0. 0. 0. 0. 0. 0. 0. 0. 0.],-0.001953125,-0.001953125,0.00390625,[0. 0. 0. 0. 0. 0. 0. 0. 0.],-1.9140625,-0.34375,9.578125,[0. 0. 0. 0. 0. 0. 0. 0. 0.]
1742662967608430886,1742662967,595353850,imu_link,-0.01690673828125,0.0997314453125,-0.0009765625,0.994873046875,[0. 0. 0. 0. 0. 0. 0. 0. 0.],-0.001953125,-0.001953125,0.00390625,[0. 0. 0. 0. 0. 0. 0. 0. 0.],-1.9140625,-0.34375,9.578125,[0. 0. 0. 0. 0. 0. 0. 0. 0.]
1742662967627288756,1742662967,615305861,imu_link,-0.01690673828125,0.0997314453125,-0.0009765625,0.994873046875,[0. 0. 0. 0. 0. 0. 0. 0. 0.],-0.001953125,-0.001953125,0.00390625,[0. 0. 0. 0. 0. 0. 0. 0. 0.],-1.953125,-0.34375,9.578125,[0. 0. 0. 0. 0. 0. 0. 0. 0.]
1742662967638876629,1742662967,635357743,imu_link,-0.01690673828125,0.0997314453125,-0.0009765625,0.994873046875,[0. 0. 0. 0. 0. 0. 0. 0. 0.],0.001953125,0.001953125,0.0,[0. 0. 0. 0. 0. 0. 0. 0. 0.],-1.953125,-0.34375,9.578125,[0. 0. 0. 0. 0. 0. 0. 0. 0.]
1742662967668570643,1742662967,655374199,imu_link,-0.01690673828125,0.0997314453125,-0.00103759765625,0.994873046875,[0. 0. 0. 0. 0. 0. 0. 0. 0.],0.001953125,0.001953125,0.0,[0. 0. 0. 0. 0. 0. 0. 0. 0.],-1.953125,-0.34375,9.5390625,[0. 0. 0. 0. 0. 0. 0. 0. 0.]
1742662967686236520,1742662967,675580841,imu_link,-0.01690673828125,0.0997314453125,-0.00103759765625,0.994873046875,[0. 0. 0. 0. 0. 0. 0. 0. 0.],-0.001953125,-0.001953125,0.001953125,[0. 0. 0. 0. 0. 0. 0. 0. 0.],-1.9140625,-0.34375,9.578125,[0. 0. 0. 0. 0. 0. 0. 0. 0.]
1742662967710142884,1742662967,695342184,imu_link,-0.01690673828125,0.0997314453125,-0.0009765625,0.994873046875,[0. 0. 0. 0. 0. 0. 0. 0. 0.],-0.001953125,-0.001953125,0.001953125,[0. 0. 0. 0. 0. 0. 0. 0. 0.],-1.9140625,-0.34375,9.578125,[0. 0. 0. 0. 0. 0. 0. 0. 0.]
1742662967718693320,1742662967,715334083,imu_link,-0.01690673828125,0.0997314453125,-0.0009765625,0.994873046875,[0. 0. 0. 0. 0. 0. 0. 0. 0.],-0.001953125,-0.001953125,0.001953125,[0. 0. 0. 0. 0. 0. 0. 0. 0.],-1.9140625,-0.34375,9.578125,[0. 0. 0. 0. 0. 0. 0. 0. 0.]
1742662967754943972,1742662967,735385558,imu_link,-0.01690673828125,0.0997314453125,-0.0009765625,0.994873046875,[0. 0. 0. 0. 0. 0. 0. 0. 0.],0.0,-0.005859375,0.001953125,[0. 0. 0. 0. 0. 0. 0. 0. 0.],-1.953125,-0.34375,9.5390625,[0. 0. 0. 0. 0. 0. 0. 0. 0.]
1742662967759296570,1742662967,757531535,imu_link,-0.01690673828125,0.0997314453125,-0.0009765625,0.994873046875,[0. 0. 0. 0. 0. 0. 0. 0. 0.],0.0,-0.005859375,0.001953125,[0. 0. 0. 0. 0. 0. 0. 0. 0.],-1.953125,-0.34375,9.5390625,[0. 0. 0. 0. 0. 0. 0. 0. 0.]
1742662967786179334,1742662967,775477840,imu_link,-0.01690673828125,0.0997314453125,-0.0009765625,0.994873046875,[0. 0. 0. 0. 0. 0. 0. 0. 0.],-0.00390625,-0.001953125,0.0,[0. 0. 0. 0. 0. 0. 0. 0. 0.],-1.9140625,-0.34375,9.578125,[0. 0. 0. 0. 0. 0. 0. 0. 0.]
1742662967810653148,1742662967,795347758,imu_link,-0.0169677734375,0.09979248046875,-0.0009765625,0.994873046875,[0. 0. 0. 0. 0. 0. 0. 0. 0.],-0.00390625,-0.001953125,0.0,[0. 0. 0. 0. 0. 0. 0. 0. 0.],-1.9140625,-0.34375,9.578125,[0. 0. 0. 0. 0. 0. 0. 0. 0.]
1742662967818311890,1742662967,815451288,imu_link,-0.0169677734375,0.09979248046875,-0.0009765625,0.994873046875,[0. 0. 0. 0. 0. 0. 0. 0. 0.],-0.00390625,-0.001953125,0.0,[0. 0. 0. 0. 0. 0. 0. 0. 0.],-1.9140625,-0.34375,9.578125,[0. 0. 0. 0. 0. 0. 0. 0. 0.]
1742662967855062195,1742662967,835391799,imu_link,-0.0169677734375,0.0997314453125,-0.0009765625,0.994873046875,[0. 0. 0. 0. 0. 0. 0. 0. 0.],0.0,0.0,0.0,[0. 0. 0. 0. 0. 0. 0. 0. 0.],-1.9140625,-0.3046875,9.58203125,[0. 0. 0. 0. 0. 0. 0. 0. 0.]
1742662967859466479,1742662967,857645536,imu_link,-0.0169677734375,0.0997314453125,-0.0009765625,0.994873046875,[0. 0. 0. 0. 0. 0. 0. 0. 0.],0.0,0.0,0.0,[0. 0. 0. 0. 0. 0. 0. 0. 0.],-1.9140625,-0.3046875,9.58203125,[0. 0. 0. 0. 0. 0. 0. 0. 0.]
1742662967886119630,1742662967,875402488,imu_link,-0.0169677734375,0.0997314453125,-0.0009765625,0.994873046875,[0. 0. 0. 0. 0. 0. 0. 0. 0.],-0.001953125,-0.00390625,0.001953125,[0. 0. 0. 0. 0. 0. 0. 0. 0.],-1.953125,-0.3046875,9.58203125,[0. 0. 0. 0. 0. 0. 0. 0. 0.]
1742662967908669722,1742662967,895389684,imu_link,-0.01702880859375,0.09967041015625,-0.0009765625,0.994873046875,[0. 0. 0. 0. 0. 0. 0. 0. 0.],-0.001953125,-0.00390625,0.001953125,[0. 0. 0. 0. 0. 0. 0. 0. 0.],-1.953125,-0.34375,9.578125,[0. 0. 0. 0. 0. 0. 0. 0. 0.]
1742662967917996202,1742662967,915308101,imu_link,-0.01702880859375,0.09967041015625,-0.0009765625,0.994873046875,[0. 0. 0. 0. 0. 0. 0. 0. 0.],-0.001953125,-0.00390625,0.001953125,[0. 0. 0. 0. 0. 0. 0. 0. 0.],-1.953125,-0.34375,9.578125,[0. 0. 0. 0. 0. 0. 0. 0. 0.]
1742662967955347809,1742662967,935389780,imu_link,-0.01702880859375,0.09967041015625,-0.0009765625,0.994873046875,[0. 0. 0. 0. 0. 0. 0. 0. 0.],-0.001953125,-0.001953125,-0.001953125,[0. 0. 0. 0. 0. 0. 0. 0. 0.],-1.9140625,-0.3046875,9.58203125,[0. 0. 0. 0. 0. 0. 0. 0. 0.]
1742662967963451722,1742662967,958031391,imu_link,-0.01702880859375,0.09967041015625,-0.0009765625,0.994873046875,[0. 0. 0. 0. 0. 0. 0. 0. 0.],-0.001953125,-0.001953125,-0.001953125,[0. 0. 0. 0. 0. 0. 0. 0. 0.],-1.9140625,-0.3046875,9.58203125,[0. 0. 0. 0. 0. 0. 0. 0. 0.]
1742662967981204137,1742662967,975405506,imu_link,-0.01702880859375,0.09967041015625,-0.0009765625,0.994873046875,[0. 0. 0. 0. 0. 0. 0. 0. 0.],-0.00390625,0.001953125,-0.001953125,[0. 0. 0. 0. 0. 0. 0. 0. 0.],-1.953125,-0.34375,9.578125,[0. 0. 0. 0. 0. 0. 0. 0. 0.]
1742662968008226254,1742662967,995534204,imu_link,-0.01702880859375,0.09967041015625,-0.0009765625,0.994873046875,[0. 0. 0. 0. 0. 0. 0. 0. 0.],-0.00390625,0.001953125,-0.001953125,[0. 0. 0. 0. 0. 0. 0. 0. 0.],-1.953125,-0.3046875,9.58203125,[0. 0. 0. 0. 0. 0. 0. 0. 0.]
1742662968018072443,1742662968,15317175,imu_link,-0.01702880859375,0.09967041015625,-0.0009765625,0.994873046875,[0. 0. 0. 0. 0. 0. 0. 0. 0.],-0.00390625,0.001953125,-0.001953125,[0. 0. 0. 0. 0. 0. 0. 0. 0.],-1.953125,-0.3046875,9.58203125,[0. 0. 0. 0. 0. 0. 0. 0. 0.]
1742662968058144169,1742662968,35399298,imu_link,-0.01702880859375,0.09967041015625,-0.0009765625,0.994873046875,[0. 0. 0. 0. 0. 0. 0. 0. 0.],0.0,0.001953125,0.0,[0. 0. 0. 0. 0. 0. 0. 0. 0.],-1.9140625,-0.34375,9.5390625,[0. 0. 0. 0. 0. 0. 0. 0. 0.]
1742662968062656028,1742662968,59743407,imu_link,-0.01702880859375,0.09967041015625,-0.0009765625,0.994873046875,[0. 0. 0. 0. 0. 0. 0. 0. 0.],0.0,0.001953125,0.0,[0. 0. 0. 0. 0. 0. 0. 0. 0.],-1.9140625,-0.34375,9.578125,[0. 0. 0. 0. 0. 0. 0. 0. 0.]
1742662968081175080,1742662968,75396246,imu_link,-0.01702880859375,0.09967041015625,-0.0009765625,0.994873046875,[0. 0. 0. 0. 0. 0. 0. 0. 0.],0.001953125,0.001953125,-0.001953125,[0. 0. 0. 0. 0. 0. 0. 0. 0.],-1.9140625,-0.34375,9.578125,[0. 0. 0. 0. 0. 0. 0. 0. 0.]
1742662968108088900,1742662968,95354812,imu_link,-0.0169677734375,0.09967041015625,-0.0009765625,0.994873046875,[0. 0. 0. 0. 0. 0. 0. 0. 0.],0.001953125,0.001953125,-0.001953125,[0. 0. 0. 0. 0. 0. 0. 0. 0.],-1.9140625,-0.34375,9.578125,[0. 0. 0. 0. 0. 0. 0. 0. 0.]
1742662968126536062,1742662968,115328008,imu_link,-0.0169677734375,0.09967041015625,-0.0009765625,0.994873046875,[0. 0. 0. 0. 0. 0. 0. 0. 0.],-0.001953125,-0.001953125,-0.001953125,[0. 0. 0. 0. 0. 0. 0. 0. 0.],-1.953125,-0.34375,9.578125,[0. 0. 0. 0. 0. 0. 0. 0. 0.]
1742662968138203176,1742662968,135332871,imu_link,-0.0169677734375,0.09967041015625,-0.0009765625,0.994873046875,[0. 0. 0. 0. 0. 0. 0. 0. 0.],-0.001953125,-0.001953125,-0.001953125,[0. 0. 0. 0. 0. 0. 0. 0. 0.],-1.953125,-0.34375,9.578125,[0. 0. 0. 0. 0. 0. 0. 0. 0.]
1742662968168049932,1742662968,155374419,imu_link,-0.01702880859375,0.099609375,-0.0009765625,0.994873046875,[0. 0. 0. 0. 0. 0. 0. 0. 0.],-0.001953125,-0.001953125,-0.001953125,[0. 0. 0. 0. 0. 0. 0. 0. 0.],-1.953125,-0.34375,9.578125,[0. 0. 0. 0. 0. 0. 0. 0. 0.]
1742662968180944207,1742662968,175649710,imu_link,-0.01702880859375,0.099609375,-0.0009765625,0.994873046875,[0. 0. 0. 0. 0. 0. 0. 0. 0.],0.00390625,0.001953125,-0.001953125,[0. 0. 0. 0. 0. 0. 0. 0. 0.],-1.953125,-0.34375,9.578125,[0. 0. 0. 0. 0. 0. 0. 0. 0.]
1742662968207925267,1742662968,195363385,imu_link,-0.01702880859375,0.099609375,-0.00103759765625,0.994873046875,[0. 0. 0. 0. 0. 0. 0. 0. 0.],0.00390625,0.001953125,-0.001953125,[0. 0. 0. 0. 0. 0. 0. 0. 0.],-1.9140625,-0.34375,9.578125,[0. 0. 0. 0. 0. 0. 0. 0. 0.]
1742662968225840795,1742662968,215408267,imu_link,-0.01702880859375,0.099609375,-0.00103759765625,0.994873046875,[0. 0. 0. 0. 0. 0. 0. 0. 0.],-0.001953125,-0.001953125,0.0,[0. 0. 0. 0. 0. 0. 0. 0. 0.],-1.9140625,-0.3046875,9.58203125,[0. 0. 0. 0. 0. 0. 0. 0. 0.]
1742662968238069693,1742662968,235322758,imu_link,-0.01702880859375,0.099609375,-0.00103759765625,0.994873046875,[0. 0. 0. 0. 0. 0. 0. 0. 0.],-0.001953125,-0.001953125,0.0,[0. 0. 0. 0. 0. 0. 0. 0. 0.],-1.9140625,-0.3046875,9.58203125,[0. 0. 0. 0. 0. 0. 0. 0. 0.]
1742662968267995171,1742662968,255383548,imu_link,-0.01702880859375,0.099609375,-0.0009765625,0.994873046875,[0. 0. 0. 0. 0. 0. 0. 0. 0.],-0.001953125,-0.001953125,0.0,[0. 0. 0. 0. 0. 0. 0. 0. 0.],-1.953125,-0.3046875,9.58203125,[0. 0. 0. 0. 0. 0. 0. 0. 0.]
1742662968285417972,1742662968,275330058,imu_link,-0.01702880859375,0.099609375,-0.0009765625,0.994873046875,[0. 0. 0. 0. 0. 0. 0. 0. 0.],-0.001953125,0.0,-0.001953125,[0. 0. 0. 0. 0. 0. 0. 0. 0.],-1.953125,-0.34375,9.578125,[0. 0. 0. 0. 0. 0. 0. 0. 0.]
1742662968309880508,1742662968,295313624,imu_link,-0.01702880859375,0.09954833984375,-0.0009765625,0.994873046875,[0. 0. 0. 0. 0. 0. 0. 0. 0.],-0.001953125,0.0,-0.001953125,[0. 0. 0. 0. 0. 0. 0. 0. 0.],-1.953125,-0.34375,9.578125,[0. 0. 0. 0. 0. 0. 0. 0. 0.]
1742662968317902383,1742662968,315508267,imu_link,-0.01702880859375,0.09954833984375,-0.0009765625,0.994873046875,[0. 0. 0. 0. 0. 0. 0. 0. 0.],-0.001953125,0.0,-0.001953125,[0. 0. 0. 0. 0. 0. 0. 0. 0.],-1.9140625,-0.34375,9.578125,[0. 0. 0. 0. 0. 0. 0. 0. 0.]
1742662968350519332,1742662968,335326591,imu_link,-0.01702880859375,0.09954833984375,-0.0009765625,0.994873046875,[0. 0. 0. 0. 0. 0. 0. 0. 0.],0.0,-0.00390625,0.0,[0. 0. 0. 0. 0. 0. 0. 0. 0.],-1.9140625,-0.34375,9.578125,[0. 0. 0. 0. 0. 0. 0. 0. 0.]
1742662968357454808,1742662968,355317694,imu_link,-0.01702880859375,0.09954833984375,-0.0009765625,0.994873046875,[0. 0. 0. 0. 0. 0. 0. 0. 0.],0.0,-0.00390625,0.0,[0. 0. 0. 0. 0. 0. 0. 0. 0.],-1.953125,-0.3046875,9.58203125,[0. 0. 0. 0. 0. 0. 0. 0. 0.]
1742662968386263090,1742662968,375386613,imu_link,-0.01702880859375,0.09954833984375,-0.0009765625,0.994873046875,[0. 0. 0. 0. 0. 0. 0. 0. 0.],-0.001953125,-0.001953125,0.0,[0. 0. 0. 0. 0. 0. 0. 0. 0.],-1.9140625,-0.34375,9.578125,[0. 0. 0. 0. 0. 0. 0. 0. 0.]
1742662968410079546,1742662968,395346698,imu_link,-0.01708984375,0.09954833984375,-0.0009765625,0.994873046875,[0. 0. 0. 0. 0. 0. 0. 0. 0.],-0.001953125,-0.001953125,0.0,[0. 0. 0. 0. 0. 0. 0. 0. 0.],-1.953125,-0.34375,9.578125,[0. 0. 0. 0. 0. 0. 0. 0. 0.]
1742662968417505230,1742662968,415337579,imu_link,-0.01708984375,0.09954833984375,-0.0009765625,0.994873046875,[0. 0. 0. 0. 0. 0. 0. 0. 0.],-0.001953125,-0.001953125,0.0,[0. 0. 0. 0. 0. 0. 0. 0. 0.],-1.953125,-0.34375,9.578125,[0. 0. 0. 0. 0. 0. 0. 0. 0.]
1742662968452167532,1742662968,435416239,imu_link,-0.01702880859375,0.09954833984375,-0.00091552734375,0.994873046875,[0. 0. 0. 0. 0. 0. 0. 0. 0.],-0.001953125,0.001953125,0.0,[0. 0. 0. 0. 0. 0. 0. 0. 0.],-1.953125,-0.34375,9.578125,[0. 0. 0. 0. 0. 0. 0. 0. 0.]
1742662968457756161,1742662968,455287063,imu_link,-0.01702880859375,0.09954833984375,-0.00091552734375,0.994873046875,[0. 0. 0. 0. 0. 0. 0. 0. 0.],-0.001953125,0.001953125,0.0,[0. 0. 0. 0. 0. 0. 0. 0. 0.],-1.953125,-0.34375,9.578125,[0. 0. 0. 0. 0. 0. 0. 0. 0.]
1742662968486657889,1742662968,475402760,imu_link,-0.01702880859375,0.09954833984375,-0.00091552734375,0.994873046875,[0. 0. 0. 0. 0. 0. 0. 0. 0.],0.0,0.0,0.0,[0. 0. 0. 0. 0. 0. 0. 0. 0.],-1.953125,-0.34375,9.578125,[0. 0. 0. 0. 0. 0. 0. 0. 0.]
1742662968508959626,1742662968,495533365,imu_link,-0.01702880859375,0.09954833984375,-0.00091552734375,0.994873046875,[0. 0. 0. 0. 0. 0. 0. 0. 0.],0.0,0.0,0.0,[0. 0. 0. 0. 0. 0. 0. 0. 0.],-1.953125,-0.34375,9.578125,[0. 0. 0. 0. 0. 0. 0. 0. 0.]
1742662968517574729,1742662968,515388911,imu_link,-0.01702880859375,0.09954833984375,-0.00091552734375,0.994873046875,[0. 0. 0. 0. 0. 0. 0. 0. 0.],0.0,0.0,0.0,[0. 0. 0. 0. 0. 0. 0. 0. 0.],-1.953125,-0.34375,9.578125,[0. 0. 0. 0. 0. 0. 0. 0. 0.]
1742662968552866871,1742662968,535379515,imu_link,-0.01702880859375,0.09954833984375,-0.0009765625,0.994873046875,[0. 0. 0. 0. 0. 0. 0. 0. 0.],0.0,0.0,0.0,[0. 0. 0. 0. 0. 0. 0. 0. 0.],-1.9140625,-0.34375,9.578125,[0. 0. 0. 0. 0. 0. 0. 0. 0.]
1742662968557522510,1742662968,555413341,imu_link,-0.01702880859375,0.09954833984375,-0.0009765625,0.994873046875,[0. 0. 0. 0. 0. 0. 0. 0. 0.],0.0,0.0,0.0,[0. 0. 0. 0. 0. 0. 0. 0. 0.],-1.9140625,-0.34375,9.578125,[0. 0. 0. 0. 0. 0. 0. 0. 0.]
1742662968586663036,1742662968,575394778,imu_link,-0.01702880859375,0.09954833984375,-0.0009765625,0.994873046875,[0. 0. 0. 0. 0. 0. 0. 0. 0.],0.0,0.0,0.0,[0. 0. 0. 0. 0. 0. 0. 0. 0.],-1.9140625,-0.3046875,9.58203125,[0. 0. 0. 0. 0. 0. 0. 0. 0.]
1742662968608710252,1742662968,595346195,imu_link,-0.01702880859375,0.09954833984375,-0.0009765625,0.994873046875,[0. 0. 0. 0. 0. 0. 0. 0. 0.],0.0,0.0,0.0,[0. 0. 0. 0. 0. 0. 0. 0. 0.],-1.9140625,-0.3046875,9.58203125,[0. 0. 0. 0. 0. 0. 0. 0. 0.]
1742662968617633025,1742662968,615401410,imu_link,-0.01702880859375,0.09954833984375,-0.0009765625,0.994873046875,[0. 0. 0. 0. 0. 0. 0. 0. 0.],0.0,0.0,0.0,[0. 0. 0. 0. 0. 0. 0. 0. 0.],-1.9140625,-0.3046875,9.58203125,[0. 0. 0. 0. 0. 0. 0. 0. 0.]
1742662968652677720,1742662968,635367810,imu_link,-0.01702880859375,0.09954833984375,-0.00091552734375,0.994873046875,[0. 0. 0. 0. 0. 0. 0. 0. 0.],0.00390625,0.001953125,0.0,[0. 0. 0. 0. 0. 0. 0. 0. 0.],-1.953125,-0.3046875,9.58203125,[0. 0. 0. 0. 0. 0. 0. 0. 0.]
1742662968662219388,1742662968,659151247,imu_link,-0.01702880859375,0.09954833984375,-0.00091552734375,0.994873046875,[0. 0. 0. 0. 0. 0. 0. 0. 0.],0.00390625,0.001953125,0.0,[0. 0. 0. 0. 0. 0. 0. 0. 0.],-1.953125,-0.3046875,9.58203125,[0. 0. 0. 0. 0. 0. 0. 0. 0.]
1742662968682205010,1742662968,675402795,imu_link,-0.01702880859375,0.09954833984375,-0.00091552734375,0.994873046875,[0. 0. 0. 0. 0. 0. 0. 0. 0.],0.0,-0.001953125,0.0,[0. 0. 0. 0. 0. 0. 0. 0. 0.],-1.953125,-0.3046875,9.58203125,[0. 0. 0. 0. 0. 0. 0. 0. 0.]
1742662968707674982,1742662968,695342342,imu_link,-0.01702880859375,0.09954833984375,-0.00091552734375,0.994873046875,[0. 0. 0. 0. 0. 0. 0. 0. 0.],0.0,-0.001953125,0.0,[0. 0. 0. 0. 0. 0. 0. 0. 0.],-1.9140625,-0.34375,9.578125,[0. 0. 0. 0. 0. 0. 0. 0. 0.]
1742662968726916930,1742662968,715395354,imu_link,-0.01702880859375,0.09954833984375,-0.00091552734375,0.994873046875,[0. 0. 0. 0. 0. 0. 0. 0. 0.],-0.001953125,-0.001953125,0.001953125,[0. 0. 0. 0. 0. 0. 0. 0. 0.],-1.9140625,-0.34375,9.578125,[0. 0. 0. 0. 0. 0. 0. 0. 0.]
1742662968737355754,1742662968,735341475,imu_link,-0.01702880859375,0.09954833984375,-0.00091552734375,0.994873046875,[0. 0. 0. 0. 0. 0. 0. 0. 0.],-0.001953125,-0.001953125,0.001953125,[0. 0. 0. 0. 0. 0. 0. 0. 0.],-1.9140625,-0.34375,9.578125,[0. 0. 0. 0. 0. 0. 0. 0. 0.]
1742662968768414948,1742662968,755382524,imu_link,-0.01702880859375,0.09954833984375,-0.00091552734375,0.994873046875,[0. 0. 0. 0. 0. 0. 0. 0. 0.],-0.001953125,-0.001953125,0.001953125,[0. 0. 0. 0. 0. 0. 0. 0. 0.],-1.953125,-0.3046875,9.58203125,[0. 0. 0. 0. 0. 0. 0. 0. 0.]
1742662968777385795,1742662968,775589814,imu_link,-0.01702880859375,0.09954833984375,-0.00091552734375,0.994873046875,[0. 0. 0. 0. 0. 0. 0. 0. 0.],0.0,0.001953125,0.001953125,[0. 0. 0. 0. 0. 0. 0. 0. 0.],-1.953125,-0.3046875,9.58203125,[0. 0. 0. 0. 0. 0. 0. 0. 0.]
1742662968807510998,1742662968,795402064,imu_link,-0.0169677734375,0.09954833984375,-0.00091552734375,0.994873046875,[0. 0. 0. 0. 0. 0. 0. 0. 0.],0.0,0.001953125,0.001953125,[0. 0. 0. 0. 0. 0. 0. 0. 0.],-1.953125,-0.34375,9.578125,[0. 0. 0. 0. 0. 0. 0. 0. 0.]
1742662968826261737,1742662968,815577262,imu_link,-0.0169677734375,0.09954833984375,-0.00091552734375,0.994873046875,[0. 0. 0. 0. 0. 0. 0. 0. 0.],-0.001953125,0.00390625,0.0,[0. 0. 0. 0. 0. 0. 0. 0. 0.],-1.9140625,-0.34375,9.578125,[0. 0. 0. 0. 0. 0. 0. 0. 0.]
1742662968837150140,1742662968,835338233,imu_link,-0.0169677734375,0.09954833984375,-0.00091552734375,0.994873046875,[0. 0. 0. 0. 0. 0. 0. 0. 0.],-0.001953125,0.00390625,0.0,[0. 0. 0. 0. 0. 0. 0. 0. 0.],-1.9140625,-0.34375,9.578125,[0. 0. 0. 0. 0. 0. 0. 0. 0.]
1742662968868185963,1742662968,855408245,imu_link,-0.0169677734375,0.09954833984375,-0.0009765625,0.994873046875,[0. 0. 0. 0. 0. 0. 0. 0. 0.],-0.001953125,0.00390625,0.0,[0. 0. 0. 0. 0. 0. 0. 0. 0.],-1.9140625,-0.34375,9.578125,[0. 0. 0. 0. 0. 0. 0. 0. 0.]
1742662968881231535,1742662968,878292155,imu_link,-0.0169677734375,0.09954833984375,-0.0009765625,0.994873046875,[0. 0. 0. 0. 0. 0. 0. 0. 0.],0.0,0.001953125,0.0,[0. 0. 0. 0. 0. 0. 0. 0. 0.],-1.953125,-0.3046875,9.58203125,[0. 0. 0. 0. 0. 0. 0. 0. 0.]
1742662968912478786,1742662968,895380970,imu_link,-0.0169677734375,0.099609375,-0.0009765625,0.994873046875,[0. 0. 0. 0. 0. 0. 0. 0. 0.],0.0,0.001953125,0.0,[0. 0. 0. 0. 0. 0. 0. 0. 0.],-1.953125,-0.34375,9.5390625,[0. 0. 0. 0. 0. 0. 0. 0. 0.]
1742662968917002108,1742662968,915286277,imu_link,-0.0169677734375,0.099609375,-0.0009765625,0.994873046875,[0. 0. 0. 0. 0. 0. 0. 0. 0.],0.0,0.001953125,0.0,[0. 0. 0. 0. 0. 0. 0. 0. 0.],-1.953125,-0.34375,9.5390625,[0. 0. 0. 0. 0. 0. 0. 0. 0.]
1742662968952243268,1742662968,935379362,imu_link,-0.0169677734375,0.099609375,-0.0009765625,0.994873046875,[0. 0. 0. 0. 0. 0. 0. 0. 0.],0.0,-0.001953125,-0.001953125,[0. 0. 0. 0. 0. 0. 0. 0. 0.],-1.953125,-0.3046875,9.58203125,[0. 0. 0. 0. 0. 0. 0. 0. 0.]
1742662968957424727,1742662968,955284224,imu_link,-0.0169677734375,0.099609375,-0.0009765625,0.994873046875,[0. 0. 0. 0. 0. 0. 0. 0. 0.],0.0,-0.001953125,-0.001953125,[0. 0. 0. 0. 0. 0. 0. 0. 0.],-1.953125,-0.3046875,9.58203125,[0. 0. 0. 0. 0. 0. 0. 0. 0.]
1742662968986010525,1742662968,975400070,imu_link,-0.0169677734375,0.099609375,-0.0009765625,0.994873046875,[0. 0. 0. 0. 0. 0. 0. 0. 0.],-0.00390625,-0.001953125,-0.001953125,[0. 0. 0. 0. 0. 0. 0. 0. 0.],-1.953125,-0.3046875,9.58203125,[0. 0. 0. 0. 0. 0. 0. 0. 0.]
1742662969007931722,1742662968,995486470,imu_link,-0.01702880859375,0.099609375,-0.0009765625,0.994873046875,[0. 0. 0. 0. 0. 0. 0. 0. 0.],-0.00390625,-0.001953125,-0.001953125,[0. 0. 0. 0. 0. 0. 0. 0. 0.],-1.953125,-0.3046875,9.58203125,[0. 0. 0. 0. 0. 0. 0. 0. 0.]
1742662969017258091,1742662969,15411258,imu_link,-0.01702880859375,0.099609375,-0.0009765625,0.994873046875,[0. 0. 0. 0. 0. 0. 0. 0. 0.],-0.00390625,-0.001953125,-0.001953125,[0. 0. 0. 0. 0. 0. 0. 0. 0.],-1.953125,-0.3046875,9.58203125,[0. 0. 0. 0. 0. 0. 0. 0. 0.]
1742662969050613103,1742662969,35385287,imu_link,-0.01702880859375,0.099609375,-0.0009765625,0.994873046875,[0. 0. 0. 0. 0. 0. 0. 0. 0.],-0.00390625,0.001953125,-0.001953125,[0. 0. 0. 0. 0. 0. 0. 0. 0.],-1.953125,-0.34375,9.578125,[0. 0. 0. 0. 0. 0. 0. 0. 0.]
1742662969057009073,1742662969,55294334,imu_link,-0.01702880859375,0.099609375,-0.0009765625,0.994873046875,[0. 0. 0. 0. 0. 0. 0. 0. 0.],-0.00390625,0.001953125,-0.001953125,[0. 0. 0. 0. 0. 0. 0. 0. 0.],-1.953125,-0.34375,9.578125,[0. 0. 0. 0. 0. 0. 0. 0. 0.]
1742662969086349231,1742662969,75391049,imu_link,-0.01702880859375,0.099609375,-0.0009765625,0.994873046875,[0. 0. 0. 0. 0. 0. 0. 0. 0.],0.001953125,0.0,0.0,[0. 0. 0. 0. 0. 0. 0. 0. 0.],-1.953125,-0.34375,9.578125,[0. 0. 0. 0. 0. 0. 0. 0. 0.]
1742662969108197833,1742662969,95335504,imu_link,-0.0169677734375,0.099609375,-0.0009765625,0.994873046875,[0. 0. 0. 0. 0. 0. 0. 0. 0.],0.001953125,0.0,0.0,[0. 0. 0. 0. 0. 0. 0. 0. 0.],-1.953125,-0.3046875,9.58203125,[0. 0. 0. 0. 0. 0. 0. 0. 0.]
1742662969117000086,1742662969,115297033,imu_link,-0.0169677734375,0.099609375,-0.0009765625,0.994873046875,[0. 0. 0. 0. 0. 0. 0. 0. 0.],0.001953125,0.0,0.0,[0. 0. 0. 0. 0. 0. 0. 0. 0.],-1.953125,-0.3046875,9.58203125,[0. 0. 0. 0. 0. 0. 0. 0. 0.]
1742662969150972012,1742662969,135402711,imu_link,-0.0169677734375,0.099609375,-0.0009765625,0.994873046875,[0. 0. 0. 0. 0. 0. 0. 0. 0.],0.0,-0.001953125,0.0,[0. 0. 0. 0. 0. 0. 0. 0. 0.],-1.953125,-0.3046875,9.58203125,[0. 0. 0. 0. 0. 0. 0. 0. 0.]
1742662969157046275,1742662969,155320684,imu_link,-0.0169677734375,0.099609375,-0.0009765625,0.994873046875,[0. 0. 0. 0. 0. 0. 0. 0. 0.],0.0,-0.001953125,0.0,[0. 0. 0. 0. 0. 0. 0. 0. 0.],-1.953125,-0.3046875,9.58203125,[0. 0. 0. 0. 0. 0. 0. 0. 0.]
1742662969186249505,1742662969,175391029,imu_link,-0.0169677734375,0.099609375,-0.0009765625,0.994873046875,[0. 0. 0. 0. 0. 0. 0. 0. 0.],0.0,0.0,0.0,[0. 0. 0. 0. 0. 0. 0. 0. 0.],-1.953125,-0.3046875,9.58203125,[0. 0. 0. 0. 0. 0. 0. 0. 0.]
1742662969207724160,1742662969,195365243,imu_link,-0.01690673828125,0.09967041015625,-0.0009765625,0.994873046875,[0. 0. 0. 0. 0. 0. 0. 0. 0.],0.0,0.0,0.0,[0. 0. 0. 0. 0. 0. 0. 0. 0.],-1.9140625,-0.3046875,9.58203125,[0. 0. 0. 0. 0. 0. 0. 0. 0.]
1742662969217111196,1742662969,215312883,imu_link,-0.01690673828125,0.09967041015625,-0.0009765625,0.994873046875,[0. 0. 0. 0. 0. 0. 0. 0. 0.],0.0,0.0,0.0,[0. 0. 0. 0. 0. 0. 0. 0. 0.],-1.9140625,-0.3046875,9.58203125,[0. 0. 0. 0. 0. 0. 0. 0. 0.]
1742662969237053170,1742662969,235308671,imu_link,-0.01690673828125,0.09967041015625,-0.0009765625,0.994873046875,[0. 0. 0. 0. 0. 0. 0. 0. 0.],0.0,0.0,0.0,[0. 0. 0. 0. 0. 0. 0. 0. 0.],-1.953125,-0.3046875,9.58203125,[0. 0. 0. 0. 0. 0. 0. 0. 0.]
1742662969262133693,1742662969,255396590,imu_link,-0.016845703125,0.09967041015625,-0.0009765625,0.994873046875,[0. 0. 0. 0. 0. 0. 0. 0. 0.],0.0,0.0,0.0,[0. 0. 0. 0. 0. 0. 0. 0. 0.],-1.953125,-0.3046875,9.58203125,[0. 0. 0. 0. 0. 0. 0. 0. 0.]
1742662969282571134,1742662969,275902902,imu_link,-0.016845703125,0.09967041015625,-0.0009765625,0.994873046875,[0. 0. 0. 0. 0. 0. 0. 0. 0.],0.0,0.0,0.0,[0. 0. 0. 0. 0. 0. 0. 0. 0.],-1.953125,-0.3046875,9.58203125,[0. 0. 0. 0. 0. 0. 0. 0. 0.]
1742662969307271783,1742662969,295362074,imu_link,-0.016845703125,0.09967041015625,-0.0009765625,0.994873046875,[0. 0. 0. 0. 0. 0. 0. 0. 0.],0.0,0.0,0.0,[0. 0. 0. 0. 0. 0. 0. 0. 0.],-1.953125,-0.34375,9.578125,[0. 0. 0. 0. 0. 0. 0. 0. 0.]
1742662969325565592,1742662969,315528179,imu_link,-0.016845703125,0.09967041015625,-0.0009765625,0.994873046875,[0. 0. 0. 0. 0. 0. 0. 0. 0.],0.0,0.0,0.0,[0. 0. 0. 0. 0. 0. 0. 0. 0.],-1.953125,-0.34375,9.578125,[0. 0. 0. 0. 0. 0. 0. 0. 0.]
1742662969337008019,1742662969,335306447,imu_link,-0.016845703125,0.09967041015625,-0.0009765625,0.994873046875,[0. 0. 0. 0. 0. 0. 0. 0. 0.],0.0,0.0,0.0,[0. 0. 0. 0. 0. 0. 0. 0. 0.],-1.953125,-0.3046875,9.58203125,[0. 0. 0. 0. 0. 0. 0. 0. 0.]
1742662969362077098,1742662969,355394403,imu_link,-0.01678466796875,0.0997314453125,-0.0009765625,0.994873046875,[0. 0. 0. 0. 0. 0. 0. 0. 0.],0.0,0.0,0.0,[0. 0. 0. 0. 0. 0. 0. 0. 0.],-1.9140625,-0.34375,9.578125,[0. 0. 0. 0. 0. 0. 0. 0. 0.]
1742662969385916961,1742662969,375334431,imu_link,-0.01678466796875,0.0997314453125,-0.0009765625,0.994873046875,[0. 0. 0. 0. 0. 0. 0. 0. 0.],0.0,0.0,0.0,[0. 0. 0. 0. 0. 0. 0. 0. 0.],-1.953125,-0.34375,9.578125,[0. 0. 0. 0. 0. 0. 0. 0. 0.]
1742662969407133095,1742662969,395379387,imu_link,-0.0167236328125,0.0997314453125,-0.0009765625,0.994873046875,[0. 0. 0. 0. 0. 0. 0. 0. 0.],0.0,0.0,0.0,[0. 0. 0. 0. 0. 0. 0. 0. 0.],-1.953125,-0.34375,9.578125,[0. 0. 0. 0. 0. 0. 0. 0. 0.]
1742662969425716740,1742662969,415360101,imu_link,-0.0167236328125,0.0997314453125,-0.0009765625,0.994873046875,[0. 0. 0. 0. 0. 0. 0. 0. 0.],0.0,0.0,0.0,[0. 0. 0. 0. 0. 0. 0. 0. 0.],-1.953125,-0.3046875,9.58203125,[0. 0. 0. 0. 0. 0. 0. 0. 0.]
1742662969437046888,1742662969,435344112,imu_link,-0.0167236328125,0.0997314453125,-0.0009765625,0.994873046875,[0. 0. 0. 0. 0. 0. 0. 0. 0.],0.0,0.0,0.0,[0. 0. 0. 0. 0. 0. 0. 0. 0.],-1.953125,-0.3046875,9.58203125,[0. 0. 0. 0. 0. 0. 0. 0. 0.]
1742662969457338383,1742662969,455382363,imu_link,-0.0167236328125,0.0997314453125,-0.0009765625,0.994873046875,[0. 0. 0. 0. 0. 0. 0. 0. 0.],0.0,0.0,0.0,[0. 0. 0. 0. 0. 0. 0. 0. 0.],-1.9140625,-0.34375,9.578125,[0. 0. 0. 0. 0. 0. 0. 0. 0.]
1742662969485856569,1742662969,475365318,imu_link,-0.0167236328125,0.0997314453125,-0.0009765625,0.994873046875,[0. 0. 0. 0. 0. 0. 0. 0. 0.],0.0,0.0,0.0,[0. 0. 0. 0. 0. 0. 0. 0. 0.],-1.953125,-0.3046875,9.58203125,[0. 0. 0. 0. 0. 0. 0. 0. 0.]
1742662969511215688,1742662969,495398311,imu_link,-0.01666259765625,0.0997314453125,-0.0009765625,0.994873046875,[0. 0. 0. 0. 0. 0. 0. 0. 0.],0.0,0.0,0.0,[0. 0. 0. 0. 0. 0. 0. 0. 0.],-1.953125,-0.3046875,9.58203125,[0. 0. 0. 0. 0. 0. 0. 0. 0.]
1742662969520611299,1742662969,515295154,imu_link,-0.01666259765625,0.0997314453125,-0.0009765625,0.994873046875,[0. 0. 0. 0. 0. 0. 0. 0. 0.],0.0,0.0,0.0,[0. 0. 0. 0. 0. 0. 0. 0. 0.],-1.953125,-0.3046875,9.58203125,[0. 0. 0. 0. 0. 0. 0. 0. 0.]
1742662969537219572,1742662969,535376203,imu_link,-0.01666259765625,0.0997314453125,-0.0009765625,0.994873046875,[0. 0. 0. 0. 0. 0. 0. 0. 0.],0.0,0.0,0.0,[0. 0. 0. 0. 0. 0. 0. 0. 0.],-1.953125,-0.3046875,9.58203125,[0. 0. 0. 0. 0. 0. 0. 0. 0.]
1742662969557167194,1742662969,555400547,imu_link,-0.01666259765625,0.09979248046875,-0.0009765625,0.994873046875,[0. 0. 0. 0. 0. 0. 0. 0. 0.],0.0,0.0,0.0,[0. 0. 0. 0. 0. 0. 0. 0. 0.],-1.953125,-0.34375,9.578125,[0. 0. 0. 0. 0. 0. 0. 0. 0.]
1742662969586003365,1742662969,575386743,imu_link,-0.01666259765625,0.09979248046875,-0.0009765625,0.994873046875,[0. 0. 0. 0. 0. 0. 0. 0. 0.],0.0,0.0,0.0,[0. 0. 0. 0. 0. 0. 0. 0. 0.],-1.9140625,-0.34375,9.578125,[0. 0. 0. 0. 0. 0. 0. 0. 0.]
1742662969604593140,1742662969,597249568,imu_link,-0.01666259765625,0.09979248046875,-0.00091552734375,0.994873046875,[0. 0. 0. 0. 0. 0. 0. 0. 0.],0.0,0.0,0.0,[0. 0. 0. 0. 0. 0. 0. 0. 0.],-1.9140625,-0.34375,9.578125,[0. 0. 0. 0. 0. 0. 0. 0. 0.]
1742662969621352526,1742662969,615318541,imu_link,-0.01666259765625,0.09979248046875,-0.00091552734375,0.994873046875,[0. 0. 0. 0. 0. 0. 0. 0. 0.],0.0,0.0,0.0,[0. 0. 0. 0. 0. 0. 0. 0. 0.],-1.9140625,-0.3046875,9.58203125,[0. 0. 0. 0. 0. 0. 0. 0. 0.]
1742662969647132686,1742662969,635392256,imu_link,-0.01666259765625,0.09979248046875,-0.00091552734375,0.994873046875,[0. 0. 0. 0. 0. 0. 0. 0. 0.],0.0,0.0,0.0,[0. 0. 0. 0. 0. 0. 0. 0. 0.],-1.953125,-0.3046875,9.58203125,[0. 0. 0. 0. 0. 0. 0. 0. 0.]
1742662969657161432,1742662969,655398119,imu_link,-0.01666259765625,0.09979248046875,-0.00091552734375,0.994873046875,[0. 0. 0. 0. 0. 0. 0. 0. 0.],0.0,0.0,0.0,[0. 0. 0. 0. 0. 0. 0. 0. 0.],-1.953125,-0.3046875,9.58203125,[0. 0. 0. 0. 0. 0. 0. 0. 0.]
1742662969685607285,1742662969,675381166,imu_link,-0.01666259765625,0.09979248046875,-0.00091552734375,0.994873046875,[0. 0. 0. 0. 0. 0. 0. 0. 0.],0.0,0.0,0.0,[0. 0. 0. 0. 0. 0. 0. 0. 0.],-1.953125,-0.34375,9.578125,[0. 0. 0. 0. 0. 0. 0. 0. 0.]
1742662969704192097,1742662969,701389625,imu_link,-0.0166015625,0.09979248046875,-0.00091552734375,0.994873046875,[0. 0. 0. 0. 0. 0. 0. 0. 0.],0.0,0.0,0.0,[0. 0. 0. 0. 0. 0. 0. 0. 0.],-1.9140625,-0.34375,9.578125,[0. 0. 0. 0. 0. 0. 0. 0. 0.]
1742662969721379117,1742662969,715381725,imu_link,-0.0166015625,0.09979248046875,-0.00091552734375,0.994873046875,[0. 0. 0. 0. 0. 0. 0. 0. 0.],0.0,0.0,0.0,[0. 0. 0. 0. 0. 0. 0. 0. 0.],-1.9140625,-0.34375,9.578125,[0. 0. 0. 0. 0. 0. 0. 0. 0.]
1742662969750872109,1742662969,735328346,imu_link,-0.0166015625,0.09979248046875,-0.00091552734375,0.994873046875,[0. 0. 0. 0. 0. 0. 0. 0. 0.],0.0,0.0,0.0,[0. 0. 0. 0. 0. 0. 0. 0. 0.],-1.9140625,-0.34375,9.578125,[0. 0. 0. 0. 0. 0. 0. 0. 0.]
1742662969757082041,1742662969,755362487,imu_link,-0.0166015625,0.09979248046875,-0.00091552734375,0.994873046875,[0. 0. 0. 0. 0. 0. 0. 0. 0.],0.0,0.0,0.0,[0. 0. 0. 0. 0. 0. 0. 0. 0.],-1.9140625,-0.34375,9.578125,[0. 0. 0. 0. 0. 0. 0. 0. 0.]
1742662969782227398,1742662969,775302775,imu_link,-0.0166015625,0.09979248046875,-0.00091552734375,0.994873046875,[0. 0. 0. 0. 0. 0. 0. 0. 0.],0.0,0.0,0.0,[0. 0. 0. 0. 0. 0. 0. 0. 0.],-1.953125,-0.34375,9.578125,[0. 0. 0. 0. 0. 0. 0. 0. 0.]
1742662969808936197,1742662969,795336915,imu_link,-0.0166015625,0.09979248046875,-0.00091552734375,0.994873046875,[0. 0. 0. 0. 0. 0. 0. 0. 0.],0.0,0.0,0.0,[0. 0. 0. 0. 0. 0. 0. 0. 0.],-1.953125,-0.34375,9.578125,[0. 0. 0. 0. 0. 0. 0. 0. 0.]
1742662969825791362,1742662969,815433927,imu_link,-0.0166015625,0.09979248046875,-0.00091552734375,0.994873046875,[0. 0. 0. 0. 0. 0. 0. 0. 0.],0.0,0.0,0.0,[0. 0. 0. 0. 0. 0. 0. 0. 0.],-1.953125,-0.34375,9.578125,[0. 0. 0. 0. 0. 0. 0. 0. 0.]
1742662969846662270,1742662969,835304270,imu_link,-0.0166015625,0.09979248046875,-0.00091552734375,0.994873046875,[0. 0. 0. 0. 0. 0. 0. 0. 0.],0.0,0.0,0.0,[0. 0. 0. 0. 0. 0. 0. 0. 0.],-1.953125,-0.34375,9.578125,[0. 0. 0. 0. 0. 0. 0. 0. 0.]
1742662969862133329,1742662969,855394596,imu_link,-0.0166015625,0.09979248046875,-0.00091552734375,0.994873046875,[0. 0. 0. 0. 0. 0. 0. 0. 0.],0.0,0.0,0.0,[0. 0. 0. 0. 0. 0. 0. 0. 0.],-1.9140625,-0.3046875,9.58203125,[0. 0. 0. 0. 0. 0. 0. 0. 0.]
1742662969881987690,1742662969,875333477,imu_link,-0.0166015625,0.09979248046875,-0.00091552734375,0.994873046875,[0. 0. 0. 0. 0. 0. 0. 0. 0.],0.0,0.0,0.0,[0. 0. 0. 0. 0. 0. 0. 0. 0.],-1.9140625,-0.3046875,9.58203125,[0. 0. 0. 0. 0. 0. 0. 0. 0.]
1742662969908998269,1742662969,895344247,imu_link,-0.0166015625,0.0997314453125,-0.00091552734375,0.994873046875,[0. 0. 0. 0. 0. 0. 0. 0. 0.],0.0,0.0,0.0,[0. 0. 0. 0. 0. 0. 0. 0. 0.],-1.953125,-0.3046875,9.58203125,[0. 0. 0. 0. 0. 0. 0. 0. 0.]
1742662969925625210,1742662969,915306535,imu_link,-0.0166015625,0.0997314453125,-0.00091552734375,0.994873046875,[0. 0. 0. 0. 0. 0. 0. 0. 0.],0.0,0.0,0.0,[0. 0. 0. 0. 0. 0. 0. 0. 0.],-1.953125,-0.3046875,9.58203125,[0. 0. 0. 0. 0. 0. 0. 0. 0.]
1742662969946674768,1742662969,935306601,imu_link,-0.01666259765625,0.0997314453125,-0.00091552734375,0.994873046875,[0. 0. 0. 0. 0. 0. 0. 0. 0.],0.0,0.0,0.0,[0. 0. 0. 0. 0. 0. 0. 0. 0.],-1.953125,-0.34375,9.578125,[0. 0. 0. 0. 0. 0. 0. 0. 0.]
1742662969958541866,1742662969,955304260,imu_link,-0.01666259765625,0.0997314453125,-0.00091552734375,0.994873046875,[0. 0. 0. 0. 0. 0. 0. 0. 0.],0.0,0.0,0.0,[0. 0. 0. 0. 0. 0. 0. 0. 0.],-1.9140625,-0.3046875,9.58203125,[0. 0. 0. 0. 0. 0. 0. 0. 0.]
1742662969986094691,1742662969,975351475,imu_link,-0.01666259765625,0.0997314453125,-0.00091552734375,0.994873046875,[0. 0. 0. 0. 0. 0. 0. 0. 0.],0.0,0.0,0.0,[0. 0. 0. 0. 0. 0. 0. 0. 0.],-1.9140625,-0.3046875,9.58203125,[0. 0. 0. 0. 0. 0. 0. 0. 0.]
1742662970001397267,1742662969,997868492,imu_link,-0.01666259765625,0.0997314453125,-0.00091552734375,0.994873046875,[0. 0. 0. 0. 0. 0. 0. 0. 0.],0.0,0.0,0.0,[0. 0. 0. 0. 0. 0. 0. 0. 0.],-1.9140625,-0.3046875,9.58203125,[0. 0. 0. 0. 0. 0. 0. 0. 0.]
1742662970025294334,1742662970,15353477,imu_link,-0.01666259765625,0.0997314453125,-0.00091552734375,0.994873046875,[0. 0. 0. 0. 0. 0. 0. 0. 0.],0.0,0.0,0.0,[0. 0. 0. 0. 0. 0. 0. 0. 0.],-1.953125,-0.34375,9.578125,[0. 0. 0. 0. 0. 0. 0. 0. 0.]
1742662970050626489,1742662970,35340932,imu_link,-0.01666259765625,0.0997314453125,-0.00091552734375,0.994873046875,[0. 0. 0. 0. 0. 0. 0. 0. 0.],0.0,0.0,0.0,[0. 0. 0. 0. 0. 0. 0. 0. 0.],-1.953125,-0.34375,9.578125,[0. 0. 0. 0. 0. 0. 0. 0. 0.]
1742662970058232934,1742662970,55303387,imu_link,-0.01666259765625,0.0997314453125,-0.00091552734375,0.994873046875,[0. 0. 0. 0. 0. 0. 0. 0. 0.],0.0,0.0,0.0,[0. 0. 0. 0. 0. 0. 0. 0. 0.],-1.953125,-0.34375,9.578125,[0. 0. 0. 0. 0. 0. 0. 0. 0.]
1742662970096257417,1742662970,75394287,imu_link,-0.01666259765625,0.0997314453125,-0.00091552734375,0.994873046875,[0. 0. 0. 0. 0. 0. 0. 0. 0.],0.0,0.0,0.0,[0. 0. 0. 0. 0. 0. 0. 0. 0.],-1.953125,-0.34375,9.578125,[0. 0. 0. 0. 0. 0. 0. 0. 0.]
1742662970102962242,1742662970,98901351,imu_link,-0.01666259765625,0.0997314453125,-0.00091552734375,0.994873046875,[0. 0. 0. 0. 0. 0. 0. 0. 0.],0.0,0.0,0.0,[0. 0. 0. 0. 0. 0. 0. 0. 0.],-1.953125,-0.34375,9.578125,[0. 0. 0. 0. 0. 0. 0. 0. 0.]
1742662970125795317,1742662970,115373289,imu_link,-0.01666259765625,0.0997314453125,-0.00091552734375,0.994873046875,[0. 0. 0. 0. 0. 0. 0. 0. 0.],0.0,0.0,0.0,[0. 0. 0. 0. 0. 0. 0. 0. 0.],-1.9140625,-0.3046875,9.54296875,[0. 0. 0. 0. 0. 0. 0. 0. 0.]
1742662970149029304,1742662970,135364633,imu_link,-0.01666259765625,0.0997314453125,-0.00091552734375,0.994873046875,[0. 0. 0. 0. 0. 0. 0. 0. 0.],0.0,0.0,0.0,[0. 0. 0. 0. 0. 0. 0. 0. 0.],-1.9140625,-0.3046875,9.54296875,[0. 0. 0. 0. 0. 0. 0. 0. 0.]
1742662970158341673,1742662970,155338255,imu_link,-0.01666259765625,0.0997314453125,-0.00091552734375,0.994873046875,[0. 0. 0. 0. 0. 0. 0. 0. 0.],0.0,0.0,0.0,[0. 0. 0. 0. 0. 0. 0. 0. 0.],-1.953125,-0.34375,9.578125,[0. 0. 0. 0. 0. 0. 0. 0. 0.]
1742662970195769372,1742662970,175402303,imu_link,-0.01666259765625,0.0997314453125,-0.00091552734375,0.994873046875,[0. 0. 0. 0. 0. 0. 0. 0. 0.],0.0,0.0,0.0,[0. 0. 0. 0. 0. 0. 0. 0. 0.],-1.953125,-0.34375,9.578125,[0. 0. 0. 0. 0. 0. 0. 0. 0.]
1742662970205359800,1742662970,198462714,imu_link,-0.01666259765625,0.0997314453125,-0.00091552734375,0.994873046875,[0. 0. 0. 0. 0. 0. 0. 0. 0.],0.0,0.0,0.0,[0. 0. 0. 0. 0. 0. 0. 0. 0.],-1.953125,-0.34375,9.578125,[0. 0. 0. 0. 0. 0. 0. 0. 0.]
1742662970223760813,1742662970,215358305,imu_link,-0.01666259765625,0.0997314453125,-0.00091552734375,0.994873046875,[0. 0. 0. 0. 0. 0. 0. 0. 0.],0.0,0.0,0.0,[0. 0. 0. 0. 0. 0. 0. 0. 0.],-1.953125,-0.34375,9.578125,[0. 0. 0. 0. 0. 0. 0. 0. 0.]
1742662970248252830,1742662970,235322667,imu_link,-0.01666259765625,0.0997314453125,-0.00091552734375,0.994873046875,[0. 0. 0. 0. 0. 0. 0. 0. 0.],0.0,0.0,0.0,[0. 0. 0. 0. 0. 0. 0. 0. 0.],-1.953125,-0.34375,9.578125,[0. 0. 0. 0. 0. 0. 0. 0. 0.]
1742662970258256317,1742662970,255330289,imu_link,-0.01666259765625,0.0997314453125,-0.00091552734375,0.994873046875,[0. 0. 0. 0. 0. 0. 0. 0. 0.],0.0,0.0,0.0,[0. 0. 0. 0. 0. 0. 0. 0. 0.],-1.953125,-0.34375,9.578125,[0. 0. 0. 0. 0. 0. 0. 0. 0.]
1742662970294736730,1742662970,275322373,imu_link,-0.01666259765625,0.0997314453125,-0.00091552734375,0.994873046875,[0. 0. 0. 0. 0. 0. 0. 0. 0.],0.0,0.0,0.0,[0. 0. 0. 0. 0. 0. 0. 0. 0.],-1.9140625,-0.34375,9.578125,[0. 0. 0. 0. 0. 0. 0. 0. 0.]
1742662970303859874,1742662970,296347894,imu_link,-0.01666259765625,0.0997314453125,-0.00091552734375,0.994873046875,[0. 0. 0. 0. 0. 0. 0. 0. 0.],0.0,0.0,0.0,[0. 0. 0. 0. 0. 0. 0. 0. 0.],-1.953125,-0.3046875,9.58203125,[0. 0. 0. 0. 0. 0. 0. 0. 0.]
1742662970324394742,1742662970,315485618,imu_link,-0.01666259765625,0.0997314453125,-0.00091552734375,0.994873046875,[0. 0. 0. 0. 0. 0. 0. 0. 0.],0.0,0.0,0.0,[0. 0. 0. 0. 0. 0. 0. 0. 0.],-1.953125,-0.3046875,9.58203125,[0. 0. 0. 0. 0. 0. 0. 0. 0.]
1742662970348986705,1742662970,335353997,imu_link,-0.0167236328125,0.0997314453125,-0.0009765625,0.994873046875,[0. 0. 0. 0. 0. 0. 0. 0. 0.],0.0,0.0,0.0,[0. 0. 0. 0. 0. 0. 0. 0. 0.],-1.953125,-0.34375,9.5390625,[0. 0. 0. 0. 0. 0. 0. 0. 0.]
1742662970362808377,1742662970,355373323,imu_link,-0.0167236328125,0.0997314453125,-0.0009765625,0.994873046875,[0. 0. 0. 0. 0. 0. 0. 0. 0.],0.0,0.0,0.0,[0. 0. 0. 0. 0. 0. 0. 0. 0.],-1.953125,-0.34375,9.5390625,[0. 0. 0. 0. 0. 0. 0. 0. 0.]
1742662970382685312,1742662970,375316111,imu_link,-0.0167236328125,0.0997314453125,-0.0009765625,0.994873046875,[0. 0. 0. 0. 0. 0. 0. 0. 0.],0.0,0.0,0.0,[0. 0. 0. 0. 0. 0. 0. 0. 0.],-1.9140625,-0.34375,9.578125,[0. 0. 0. 0. 0. 0. 0. 0. 0.]
1742662970410257378,1742662970,395390770,imu_link,-0.0167236328125,0.0997314453125,-0.0009765625,0.994873046875,[0. 0. 0. 0. 0. 0. 0. 0. 0.],0.0,0.0,0.0,[0. 0. 0. 0. 0. 0. 0. 0. 0.],-1.9140625,-0.3046875,9.58203125,[0. 0. 0. 0. 0. 0. 0. 0. 0.]
1742662970426892263,1742662970,415299483,imu_link,-0.0167236328125,0.0997314453125,-0.0009765625,0.994873046875,[0. 0. 0. 0. 0. 0. 0. 0. 0.],0.0,0.0,0.0,[0. 0. 0. 0. 0. 0. 0. 0. 0.],-1.953125,-0.3046875,9.58203125,[0. 0. 0. 0. 0. 0. 0. 0. 0.]
1742662970447985970,1742662970,435298975,imu_link,-0.01678466796875,0.0997314453125,-0.0009765625,0.994873046875,[0. 0. 0. 0. 0. 0. 0. 0. 0.],0.0,0.0,0.0,[0. 0. 0. 0. 0. 0. 0. 0. 0.],-1.953125,-0.3046875,9.58203125,[0. 0. 0. 0. 0. 0. 0. 0. 0.]
1742662970463329731,1742662970,455303023,imu_link,-0.01678466796875,0.0997314453125,-0.0009765625,0.994873046875,[0. 0. 0. 0. 0. 0. 0. 0. 0.],0.0,0.0,0.0,[0. 0. 0. 0. 0. 0. 0. 0. 0.],-1.9140625,-0.34375,9.578125,[0. 0. 0. 0. 0. 0. 0. 0. 0.]
1742662970483325334,1742662970,475341793,imu_link,-0.01678466796875,0.0997314453125,-0.0009765625,0.994873046875,[0. 0. 0. 0. 0. 0. 0. 0. 0.],0.0,0.0,0.0,[0. 0. 0. 0. 0. 0. 0. 0. 0.],-1.9140625,-0.34375,9.578125,[0. 0. 0. 0. 0. 0. 0. 0. 0.]
1742662970510958086,1742662970,495557602,imu_link,-0.01678466796875,0.0997314453125,-0.0009765625,0.994873046875,[0. 0. 0. 0. 0. 0. 0. 0. 0.],0.0,0.0,0.0,[0. 0. 0. 0. 0. 0. 0. 0. 0.],-1.9140625,-0.34375,9.578125,[0. 0. 0. 0. 0. 0. 0. 0. 0.]
1742662970525685693,1742662970,515297221,imu_link,-0.01678466796875,0.0997314453125,-0.0009765625,0.994873046875,[0. 0. 0. 0. 0. 0. 0. 0. 0.],0.0,0.0,0.0,[0. 0. 0. 0. 0. 0. 0. 0. 0.],-1.953125,-0.3046875,9.58203125,[0. 0. 0. 0. 0. 0. 0. 0. 0.]
1742662970552497215,1742662970,535364751,imu_link,-0.01678466796875,0.0997314453125,-0.0009765625,0.994873046875,[0. 0. 0. 0. 0. 0. 0. 0. 0.],0.0,0.0,0.0,[0. 0. 0. 0. 0. 0. 0. 0. 0.],-1.953125,-0.3046875,9.58203125,[0. 0. 0. 0. 0. 0. 0. 0. 0.]
1742662970558601348,1742662970,555289020,imu_link,-0.01678466796875,0.0997314453125,-0.0009765625,0.994873046875,[0. 0. 0. 0. 0. 0. 0. 0. 0.],0.0,0.0,0.0,[0. 0. 0. 0. 0. 0. 0. 0. 0.],-1.953125,-0.34375,9.578125,[0. 0. 0. 0. 0. 0. 0. 0. 0.]
1742662970595206096,1742662970,575388753,imu_link,-0.01678466796875,0.0997314453125,-0.0009765625,0.994873046875,[0. 0. 0. 0. 0. 0. 0. 0. 0.],0.0,0.0,0.0,[0. 0. 0. 0. 0. 0. 0. 0. 0.],-1.953125,-0.34375,9.578125,[0. 0. 0. 0. 0. 0. 0. 0. 0.]
1742662970601273877,1742662970,597826084,imu_link,-0.01678466796875,0.0997314453125,-0.0009765625,0.994873046875,[0. 0. 0. 0. 0. 0. 0. 0. 0.],0.0,0.0,0.0,[0. 0. 0. 0. 0. 0. 0. 0. 0.],-1.953125,-0.34375,9.578125,[0. 0. 0. 0. 0. 0. 0. 0. 0.]
1742662970625504040,1742662970,615390163,imu_link,-0.01678466796875,0.0997314453125,-0.0009765625,0.994873046875,[0. 0. 0. 0. 0. 0. 0. 0. 0.],0.0,0.0,0.0,[0. 0. 0. 0. 0. 0. 0. 0. 0.],-1.9140625,-0.3046875,9.58203125,[0. 0. 0. 0. 0. 0. 0. 0. 0.]
1742662970652638917,1742662970,635470119,imu_link,-0.01678466796875,0.0997314453125,-0.0009765625,0.994873046875,[0. 0. 0. 0. 0. 0. 0. 0. 0.],0.0,0.0,0.0,[0. 0. 0. 0. 0. 0. 0. 0. 0.],-1.953125,-0.3046875,9.58203125,[0. 0. 0. 0. 0. 0. 0. 0. 0.]
1742662970658700920,1742662970,655285850,imu_link,-0.01678466796875,0.0997314453125,-0.0009765625,0.994873046875,[0. 0. 0. 0. 0. 0. 0. 0. 0.],0.0,0.0,0.0,[0. 0. 0. 0. 0. 0. 0. 0. 0.],-1.953125,-0.3046875,9.58203125,[0. 0. 0. 0. 0. 0. 0. 0. 0.]
1742662970696051064,1742662970,675386806,imu_link,-0.01678466796875,0.0997314453125,-0.0009765625,0.994873046875,[0. 0. 0. 0. 0. 0. 0. 0. 0.],0.0,0.0,0.0,[0. 0. 0. 0. 0. 0. 0. 0. 0.],-1.953125,-0.34375,9.578125,[0. 0. 0. 0. 0. 0. 0. 0. 0.]
1742662970701968899,1742662970,698603015,imu_link,-0.01678466796875,0.0997314453125,-0.0009765625,0.994873046875,[0. 0. 0. 0. 0. 0. 0. 0. 0.],0.0,0.0,0.0,[0. 0. 0. 0. 0. 0. 0. 0. 0.],-1.953125,-0.34375,9.578125,[0. 0. 0. 0. 0. 0. 0. 0. 0.]
1742662970722586657,1742662970,715386883,imu_link,-0.01678466796875,0.0997314453125,-0.0009765625,0.994873046875,[0. 0. 0. 0. 0. 0. 0. 0. 0.],0.0,0.0,0.0,[0. 0. 0. 0. 0. 0. 0. 0. 0.],-1.953125,-0.34375,9.578125,[0. 0. 0. 0. 0. 0. 0. 0. 0.]
1742662970748807950,1742662970,735337985,imu_link,-0.01678466796875,0.0997314453125,-0.0009765625,0.994873046875,[0. 0. 0. 0. 0. 0. 0. 0. 0.],0.0,0.0,0.0,[0. 0. 0. 0. 0. 0. 0. 0. 0.],-1.9140625,-0.3046875,9.58203125,[0. 0. 0. 0. 0. 0. 0. 0. 0.]
1742662970758631195,1742662970,755304810,imu_link,-0.01678466796875,0.0997314453125,-0.0009765625,0.994873046875,[0. 0. 0. 0. 0. 0. 0. 0. 0.],0.0,0.0,0.0,[0. 0. 0. 0. 0. 0. 0. 0. 0.],-1.9140625,-0.3046875,9.58203125,[0. 0. 0. 0. 0. 0. 0. 0. 0.]
1742662970794507583,1742662970,775294635,imu_link,-0.01678466796875,0.0997314453125,-0.0009765625,0.994873046875,[0. 0. 0. 0. 0. 0. 0. 0. 0.],0.0,0.0,0.0,[0. 0. 0. 0. 0. 0. 0. 0. 0.],-1.953125,-0.34375,9.578125,[0. 0. 0. 0. 0. 0. 0. 0. 0.]
1742662970804433735,1742662970,797283832,imu_link,-0.01678466796875,0.0997314453125,-0.0009765625,0.994873046875,[0. 0. 0. 0. 0. 0. 0. 0. 0.],0.0,0.0,0.0,[0. 0. 0. 0. 0. 0. 0. 0. 0.],-1.953125,-0.34375,9.578125,[0. 0. 0. 0. 0. 0. 0. 0. 0.]
1742662970822797322,1742662970,815511696,imu_link,-0.01678466796875,0.0997314453125,-0.0009765625,0.994873046875,[0. 0. 0. 0. 0. 0. 0. 0. 0.],0.0,0.0,0.0,[0. 0. 0. 0. 0. 0. 0. 0. 0.],-1.953125,-0.34375,9.578125,[0. 0. 0. 0. 0. 0. 0. 0. 0.]
1742662970849875476,1742662970,835345853,imu_link,-0.01678466796875,0.09967041015625,-0.0009765625,0.994873046875,[0. 0. 0. 0. 0. 0. 0. 0. 0.],0.0,0.0,0.0,[0. 0. 0. 0. 0. 0. 0. 0. 0.],-1.953125,-0.3046875,9.58203125,[0. 0. 0. 0. 0. 0. 0. 0. 0.]
1742662970858729026,1742662970,855338789,imu_link,-0.01678466796875,0.09967041015625,-0.0009765625,0.994873046875,[0. 0. 0. 0. 0. 0. 0. 0. 0.],0.0,0.0,0.0,[0. 0. 0. 0. 0. 0. 0. 0. 0.],-1.953125,-0.3046875,9.58203125,[0. 0. 0. 0. 0. 0. 0. 0. 0.]
1742662970895089696,1742662970,875318244,imu_link,-0.01678466796875,0.09967041015625,-0.0009765625,0.994873046875,[0. 0. 0. 0. 0. 0. 0. 0. 0.],0.0,0.0,0.0,[0. 0. 0. 0. 0. 0. 0. 0. 0.],-1.9140625,-0.34375,9.578125,[0. 0. 0. 0. 0. 0. 0. 0. 0.]
1742662970903990691,1742662970,902272896,imu_link,-0.01678466796875,0.09967041015625,-0.0009765625,0.994873046875,[0. 0. 0. 0. 0. 0. 0. 0. 0.],0.0,0.0,0.0,[0. 0. 0. 0. 0. 0. 0. 0. 0.],-1.953125,-0.34375,9.578125,[0. 0. 0. 0. 0. 0. 0. 0. 0.]
1742662970922711374,1742662970,915328839,imu_link,-0.01678466796875,0.09967041015625,-0.0009765625,0.994873046875,[0. 0. 0. 0. 0. 0. 0. 0. 0.],0.0,0.0,0.0,[0. 0. 0. 0. 0. 0. 0. 0. 0.],-1.953125,-0.34375,9.578125,[0. 0. 0. 0. 0. 0. 0. 0. 0.]
1742662970949686860,1742662970,935344498,imu_link,-0.01678466796875,0.09967041015625,-0.0009765625,0.994873046875,[0. 0. 0. 0. 0. 0. 0. 0. 0.],0.0,0.0,0.0,[0. 0. 0. 0. 0. 0. 0. 0. 0.],-1.953125,-0.34375,9.578125,[0. 0. 0. 0. 0. 0. 0. 0. 0.]
1742662970962914156,1742662970,955324008,imu_link,-0.01678466796875,0.09967041015625,-0.0009765625,0.994873046875,[0. 0. 0. 0. 0. 0. 0. 0. 0.],0.0,0.0,0.0,[0. 0. 0. 0. 0. 0. 0. 0. 0.],-1.953125,-0.34375,9.578125,[0. 0. 0. 0. 0. 0. 0. 0. 0.]
1742662970978675551,1742662970,975329852,imu_link,-0.01678466796875,0.09967041015625,-0.0009765625,0.994873046875,[0. 0. 0. 0. 0. 0. 0. 0. 0.],0.0,0.0,0.0,[0. 0. 0. 0. 0. 0. 0. 0. 0.],-1.9140625,-0.3046875,9.58203125,[0. 0. 0. 0. 0. 0. 0. 0. 0.]
1742662971010028506,1742662970,995554587,imu_link,-0.01678466796875,0.09967041015625,-0.0009765625,0.994873046875,[0. 0. 0. 0. 0. 0. 0. 0. 0.],0.0,0.0,0.0,[0. 0. 0. 0. 0. 0. 0. 0. 0.],-1.953125,-0.34375,9.578125,[0. 0. 0. 0. 0. 0. 0. 0. 0.]
1742662971027215507,1742662971,15301280,imu_link,-0.01678466796875,0.09967041015625,-0.0009765625,0.994873046875,[0. 0. 0. 0. 0. 0. 0. 0. 0.],0.0,0.0,0.0,[0. 0. 0. 0. 0. 0. 0. 0. 0.],-1.953125,-0.3046875,9.58203125,[0. 0. 0. 0. 0. 0. 0. 0. 0.]
1742662971047992470,1742662971,35389754,imu_link,-0.01678466796875,0.09967041015625,-0.0009765625,0.994873046875,[0. 0. 0. 0. 0. 0. 0. 0. 0.],0.0,0.0,0.0,[0. 0. 0. 0. 0. 0. 0. 0. 0.],-1.953125,-0.3046875,9.58203125,[0. 0. 0. 0. 0. 0. 0. 0. 0.]
1742662971062476445,1742662971,55327245,imu_link,-0.01678466796875,0.09967041015625,-0.0009765625,0.994873046875,[0. 0. 0. 0. 0. 0. 0. 0. 0.],0.0,0.0,0.0,[0. 0. 0. 0. 0. 0. 0. 0. 0.],-1.953125,-0.34375,9.578125,[0. 0. 0. 0. 0. 0. 0. 0. 0.]
1742662971083080239,1742662971,75370293,imu_link,-0.01678466796875,0.09967041015625,-0.0009765625,0.994873046875,[0. 0. 0. 0. 0. 0. 0. 0. 0.],0.0,0.0,0.0,[0. 0. 0. 0. 0. 0. 0. 0. 0.],-1.953125,-0.34375,9.578125,[0. 0. 0. 0. 0. 0. 0. 0. 0.]
