timestamp,header.stamp.sec,header.stamp.nanosec,header.frame_id,orientation.x,orientation.y,orientation.z,orientation.w,orientation_covariance,angular_velocity.x,angular_velocity.y,angular_velocity.z,angular_velocity_covariance,linear_acceleration.x,linear_acceleration.y,linear_acceleration.z,linear_acceleration_covariance
1742667050199438708,1742667050,191673801,imu_link,-0.015625,0.09808349609375,-0.00115966796875,0.99505615234375,[0. 0. 0. 0. 0. 0. 0. 0. 0.],0.0,0.0,0.0,[0. 0. 0. 0. 0. 0. 0. 0. 0.],-1.9140625,-0.3046875,9.58203125,[0. 0. 0. 0. 0. 0. 0. 0. 0.]
1742667050218361116,1742667050,210992727,imu_link,-0.015625,0.09808349609375,-0.00115966796875,0.99505615234375,[0. 0. 0. 0. 0. 0. 0. 0. 0.],0.0,0.0,0.0,[0. 0. 0. 0. 0. 0. 0. 0. 0.],-1.9140625,-0.3046875,9.58203125,[0. 0. 0. 0. 0. 0. 0. 0. 0.]
1742667050243173912,1742667050,231034449,imu_link,-0.015625,0.09808349609375,-0.00115966796875,0.99505615234375,[0. 0. 0. 0. 0. 0. 0. 0. 0.],0.0,0.0,0.0,[0. 0. 0. 0. 0. 0. 0. 0. 0.],-1.9140625,-0.3046875,9.58203125,[0. 0. 0. 0. 0. 0. 0. 0. 0.]
1742667050252858579,1742667050,250782153,imu_link,-0.015625,0.09808349609375,-0.00115966796875,0.99505615234375,[0. 0. 0. 0. 0. 0. 0. 0. 0.],0.0,0.0,0.0,[0. 0. 0. 0. 0. 0. 0. 0. 0.],-1.9140625,-0.3046875,9.58203125,[0. 0. 0. 0. 0. 0. 0. 0. 0.]
1742667050292080579,1742667050,270797190,imu_link,-0.015625,0.09808349609375,-0.00115966796875,0.99505615234375,[0. 0. 0. 0. 0. 0. 0. 0. 0.],0.0,0.0,0.0,[0. 0. 0. 0. 0. 0. 0. 0. 0.],-1.9140625,-0.3046875,9.58203125,[0. 0. 0. 0. 0. 0. 0. 0. 0.]
1742667050296809634,1742667050,293722208,imu_link,-0.015625,0.09808349609375,-0.00115966796875,0.99505615234375,[0. 0. 0. 0. 0. 0. 0. 0. 0.],0.0,0.0,0.0,[0. 0. 0. 0. 0. 0. 0. 0. 0.],-1.9140625,-0.3046875,9.58203125,[0. 0. 0. 0. 0. 0. 0. 0. 0.]
1742667050321954727,1742667050,310828616,imu_link,-0.015625,0.09808349609375,-0.00115966796875,0.99505615234375,[0. 0. 0. 0. 0. 0. 0. 0. 0.],0.0,0.0,0.0,[0. 0. 0. 0. 0. 0. 0. 0. 0.],-1.9140625,-0.3046875,9.58203125,[0. 0. 0. 0. 0. 0. 0. 0. 0.]
1742667050342887764,1742667050,330830597,imu_link,-0.015625,0.09808349609375,-0.00115966796875,0.99505615234375,[0. 0. 0. 0. 0. 0. 0. 0. 0.],0.0,0.0,0.0,[0. 0. 0. 0. 0. 0. 0. 0. 0.],-1.9140625,-0.3046875,9.58203125,[0. 0. 0. 0. 0. 0. 0. 0. 0.]
1742667050361610968,1742667050,350764819,imu_link,-0.015625,0.09808349609375,-0.00115966796875,0.99505615234375,[0. 0. 0. 0. 0. 0. 0. 0. 0.],0.0,0.0,0.0,[0. 0. 0. 0. 0. 0. 0. 0. 0.],-1.9140625,-0.3046875,9.58203125,[0. 0. 0. 0. 0. 0. 0. 0. 0.]
1742667050372942949,1742667050,370979745,imu_link,-0.015625,0.09808349609375,-0.00115966796875,0.99505615234375,[0. 0. 0. 0. 0. 0. 0. 0. 0.],0.0,0.0,0.0,[0. 0. 0. 0. 0. 0. 0. 0. 0.],-1.9140625,-0.3046875,9.58203125,[0. 0. 0. 0. 0. 0. 0. 0. 0.]
1742667050392530968,1742667050,390731745,imu_link,-0.015625,0.09808349609375,-0.00115966796875,0.99505615234375,[0. 0. 0. 0. 0. 0. 0. 0. 0.],0.0,0.0,0.0,[0. 0. 0. 0. 0. 0. 0. 0. 0.],-1.9140625,-0.3046875,9.58203125,[0. 0. 0. 0. 0. 0. 0. 0. 0.]
1742667050421781505,1742667050,411225560,imu_link,-0.015625,0.09808349609375,-0.00115966796875,0.99505615234375,[0. 0. 0. 0. 0. 0. 0. 0. 0.],0.0,0.0,0.0,[0. 0. 0. 0. 0. 0. 0. 0. 0.],-1.9140625,-0.3046875,9.58203125,[0. 0. 0. 0. 0. 0. 0. 0. 0.]
1742667050442708393,1742667050,430997505,imu_link,-0.015625,0.09814453125,-0.00115966796875,0.99505615234375,[0. 0. 0. 0. 0. 0. 0. 0. 0.],0.0,0.0,0.0,[0. 0. 0. 0. 0. 0. 0. 0. 0.],-1.9140625,-0.3046875,9.58203125,[0. 0. 0. 0. 0. 0. 0. 0. 0.]
1742667050461508264,1742667050,450787208,imu_link,-0.015625,0.09814453125,-0.00115966796875,0.99505615234375,[0. 0. 0. 0. 0. 0. 0. 0. 0.],0.0,0.0,0.0,[0. 0. 0. 0. 0. 0. 0. 0. 0.],-1.9140625,-0.3046875,9.54296875,[0. 0. 0. 0. 0. 0. 0. 0. 0.]
1742667050472533838,1742667050,470770468,imu_link,-0.015625,0.09814453125,-0.00115966796875,0.99505615234375,[0. 0. 0. 0. 0. 0. 0. 0. 0.],0.0,0.0,0.0,[0. 0. 0. 0. 0. 0. 0. 0. 0.],-1.9140625,-0.3046875,9.54296875,[0. 0. 0. 0. 0. 0. 0. 0. 0.]
1742667050511361856,1742667050,490830153,imu_link,-0.015625,0.09814453125,-0.00115966796875,0.99505615234375,[0. 0. 0. 0. 0. 0. 0. 0. 0.],0.0,0.0,0.0,[0. 0. 0. 0. 0. 0. 0. 0. 0.],-1.9140625,-0.3046875,9.58203125,[0. 0. 0. 0. 0. 0. 0. 0. 0.]
1742667050515548727,1742667050,513068523,imu_link,-0.015625,0.09814453125,-0.00115966796875,0.99505615234375,[0. 0. 0. 0. 0. 0. 0. 0. 0.],0.0,0.0,0.0,[0. 0. 0. 0. 0. 0. 0. 0. 0.],-1.9140625,-0.3046875,9.58203125,[0. 0. 0. 0. 0. 0. 0. 0. 0.]
1742667050545158542,1742667050,530833542,imu_link,-0.015625,0.09814453125,-0.00115966796875,0.99505615234375,[0. 0. 0. 0. 0. 0. 0. 0. 0.],0.0,0.0,0.0,[0. 0. 0. 0. 0. 0. 0. 0. 0.],-1.9140625,-0.3046875,9.58203125,[0. 0. 0. 0. 0. 0. 0. 0. 0.]
1742667050553058356,1742667050,550918708,imu_link,-0.015625,0.09814453125,-0.00115966796875,0.99505615234375,[0. 0. 0. 0. 0. 0. 0. 0. 0.],0.0,0.0,0.0,[0. 0. 0. 0. 0. 0. 0. 0. 0.],-1.9140625,-0.3046875,9.58203125,[0. 0. 0. 0. 0. 0. 0. 0. 0.]
1742667050587729023,1742667050,570774579,imu_link,-0.015625,0.09820556640625,-0.00115966796875,0.99505615234375,[0. 0. 0. 0. 0. 0. 0. 0. 0.],0.0,0.0,0.0,[0. 0. 0. 0. 0. 0. 0. 0. 0.],-1.9140625,-0.3046875,9.58203125,[0. 0. 0. 0. 0. 0. 0. 0. 0.]
1742667050592467967,1742667050,590718116,imu_link,-0.015625,0.09820556640625,-0.00115966796875,0.99505615234375,[0. 0. 0. 0. 0. 0. 0. 0. 0.],0.0,0.0,0.0,[0. 0. 0. 0. 0. 0. 0. 0. 0.],-1.9140625,-0.3046875,9.58203125,[0. 0. 0. 0. 0. 0. 0. 0. 0.]
1742667050621926004,1742667050,610777579,imu_link,-0.015625,0.09820556640625,-0.00115966796875,0.99505615234375,[0. 0. 0. 0. 0. 0. 0. 0. 0.],0.0,0.0,0.0,[0. 0. 0. 0. 0. 0. 0. 0. 0.],-1.9140625,-0.3046875,9.58203125,[0. 0. 0. 0. 0. 0. 0. 0. 0.]
1742667050643667949,1742667050,630818690,imu_link,-0.015625,0.09820556640625,-0.00115966796875,0.99505615234375,[0. 0. 0. 0. 0. 0. 0. 0. 0.],0.0,0.0,0.0,[0. 0. 0. 0. 0. 0. 0. 0. 0.],-1.87890625,-0.3046875,9.578125,[0. 0. 0. 0. 0. 0. 0. 0. 0.]
1742667050652429727,1742667050,650728579,imu_link,-0.015625,0.09820556640625,-0.00115966796875,0.99505615234375,[0. 0. 0. 0. 0. 0. 0. 0. 0.],0.0,0.0,0.0,[0. 0. 0. 0. 0. 0. 0. 0. 0.],-1.87890625,-0.3046875,9.578125,[0. 0. 0. 0. 0. 0. 0. 0. 0.]
1742667050687203838,1742667050,670800134,imu_link,-0.015625,0.09820556640625,-0.00115966796875,0.99505615234375,[0. 0. 0. 0. 0. 0. 0. 0. 0.],0.0,0.0,0.0,[0. 0. 0. 0. 0. 0. 0. 0. 0.],-1.9140625,-0.3046875,9.58203125,[0. 0. 0. 0. 0. 0. 0. 0. 0.]
1742667050692638393,1742667050,690754319,imu_link,-0.015625,0.09820556640625,-0.00115966796875,0.99505615234375,[0. 0. 0. 0. 0. 0. 0. 0. 0.],0.0,0.0,0.0,[0. 0. 0. 0. 0. 0. 0. 0. 0.],-1.9140625,-0.3046875,9.58203125,[0. 0. 0. 0. 0. 0. 0. 0. 0.]
1742667050721623801,1742667050,710799338,imu_link,-0.015625,0.09820556640625,-0.00115966796875,0.99505615234375,[0. 0. 0. 0. 0. 0. 0. 0. 0.],0.0,0.0,0.0,[0. 0. 0. 0. 0. 0. 0. 0. 0.],-1.9140625,-0.3046875,9.58203125,[0. 0. 0. 0. 0. 0. 0. 0. 0.]
1742667050742953208,1742667050,730897486,imu_link,-0.015625,0.09820556640625,-0.00115966796875,0.99505615234375,[0. 0. 0. 0. 0. 0. 0. 0. 0.],0.0,0.0,0.0,[0. 0. 0. 0. 0. 0. 0. 0. 0.],-1.9140625,-0.3046875,9.58203125,[0. 0. 0. 0. 0. 0. 0. 0. 0.]
1742667050752545838,1742667050,750769949,imu_link,-0.015625,0.09820556640625,-0.00115966796875,0.99505615234375,[0. 0. 0. 0. 0. 0. 0. 0. 0.],0.0,0.0,0.0,[0. 0. 0. 0. 0. 0. 0. 0. 0.],-1.9140625,-0.3046875,9.58203125,[0. 0. 0. 0. 0. 0. 0. 0. 0.]
1742667050786737949,1742667050,770837097,imu_link,-0.015625,0.0982666015625,-0.00115966796875,0.99505615234375,[0. 0. 0. 0. 0. 0. 0. 0. 0.],0.0,0.0,0.0,[0. 0. 0. 0. 0. 0. 0. 0. 0.],-1.9140625,-0.3046875,9.58203125,[0. 0. 0. 0. 0. 0. 0. 0. 0.]
1742667050797340301,1742667050,790739041,imu_link,-0.015625,0.0982666015625,-0.00115966796875,0.99505615234375,[0. 0. 0. 0. 0. 0. 0. 0. 0.],0.0,0.0,0.0,[0. 0. 0. 0. 0. 0. 0. 0. 0.],-1.9140625,-0.3046875,9.58203125,[0. 0. 0. 0. 0. 0. 0. 0. 0.]
1742667050818704690,1742667050,810791264,imu_link,-0.015625,0.0982666015625,-0.00115966796875,0.99505615234375,[0. 0. 0. 0. 0. 0. 0. 0. 0.],0.0,0.0,0.0,[0. 0. 0. 0. 0. 0. 0. 0. 0.],-1.9140625,-0.3046875,9.58203125,[0. 0. 0. 0. 0. 0. 0. 0. 0.]
1742667050843267486,1742667050,830825208,imu_link,-0.015625,0.0982666015625,-0.00115966796875,0.99505615234375,[0. 0. 0. 0. 0. 0. 0. 0. 0.],0.0,0.0,0.0,[0. 0. 0. 0. 0. 0. 0. 0. 0.],-1.9140625,-0.3046875,9.609375,[0. 0. 0. 0. 0. 0. 0. 0. 0.]
1742667050852611967,1742667050,850775615,imu_link,-0.015625,0.0982666015625,-0.00115966796875,0.99505615234375,[0. 0. 0. 0. 0. 0. 0. 0. 0.],0.0,0.0,0.0,[0. 0. 0. 0. 0. 0. 0. 0. 0.],-1.9140625,-0.3046875,9.609375,[0. 0. 0. 0. 0. 0. 0. 0. 0.]
1742667050872995727,1742667050,871022078,imu_link,-0.015625,0.0982666015625,-0.00115966796875,0.99505615234375,[0. 0. 0. 0. 0. 0. 0. 0. 0.],0.0,0.0,0.0,[0. 0. 0. 0. 0. 0. 0. 0. 0.],-1.9140625,-0.3046875,9.58203125,[0. 0. 0. 0. 0. 0. 0. 0. 0.]
1742667050897324430,1742667050,890750801,imu_link,-0.015625,0.0982666015625,-0.00115966796875,0.99505615234375,[0. 0. 0. 0. 0. 0. 0. 0. 0.],0.0,0.0,0.0,[0. 0. 0. 0. 0. 0. 0. 0. 0.],-1.9140625,-0.3046875,9.58203125,[0. 0. 0. 0. 0. 0. 0. 0. 0.]
1742667050916977801,1742667050,910818634,imu_link,-0.015625,0.0982666015625,-0.00115966796875,0.99505615234375,[0. 0. 0. 0. 0. 0. 0. 0. 0.],0.0,0.0,0.0,[0. 0. 0. 0. 0. 0. 0. 0. 0.],-1.9140625,-0.3046875,9.58203125,[0. 0. 0. 0. 0. 0. 0. 0. 0.]
1742667050941932152,1742667050,930739023,imu_link,-0.01556396484375,0.0982666015625,-0.00115966796875,0.99505615234375,[0. 0. 0. 0. 0. 0. 0. 0. 0.],0.0,0.0,0.0,[0. 0. 0. 0. 0. 0. 0. 0. 0.],-1.9140625,-0.3046875,9.58203125,[0. 0. 0. 0. 0. 0. 0. 0. 0.]
1742667050961301004,1742667050,950806523,imu_link,-0.01556396484375,0.0982666015625,-0.00115966796875,0.99505615234375,[0. 0. 0. 0. 0. 0. 0. 0. 0.],0.0,0.0,0.0,[0. 0. 0. 0. 0. 0. 0. 0. 0.],-1.9140625,-0.3046875,9.58203125,[0. 0. 0. 0. 0. 0. 0. 0. 0.]
1742667050972593393,1742667050,970810078,imu_link,-0.01556396484375,0.0982666015625,-0.00115966796875,0.99505615234375,[0. 0. 0. 0. 0. 0. 0. 0. 0.],0.0,0.0,0.0,[0. 0. 0. 0. 0. 0. 0. 0. 0.],-1.9140625,-0.3046875,9.58203125,[0. 0. 0. 0. 0. 0. 0. 0. 0.]
1742667050992459615,1742667050,990723356,imu_link,-0.01556396484375,0.0982666015625,-0.00115966796875,0.99505615234375,[0. 0. 0. 0. 0. 0. 0. 0. 0.],0.0,0.0,0.0,[0. 0. 0. 0. 0. 0. 0. 0. 0.],-1.9140625,-0.3046875,9.58203125,[0. 0. 0. 0. 0. 0. 0. 0. 0.]
1742667051021250689,1742667051,10760171,imu_link,-0.01556396484375,0.0982666015625,-0.00115966796875,0.99505615234375,[0. 0. 0. 0. 0. 0. 0. 0. 0.],0.0,0.0,0.0,[0. 0. 0. 0. 0. 0. 0. 0. 0.],-1.9140625,-0.3046875,9.58203125,[0. 0. 0. 0. 0. 0. 0. 0. 0.]
1742667051042247541,1742667051,30761541,imu_link,-0.01556396484375,0.09832763671875,-0.00115966796875,0.99505615234375,[0. 0. 0. 0. 0. 0. 0. 0. 0.],0.0,0.0,0.0,[0. 0. 0. 0. 0. 0. 0. 0. 0.],-1.9140625,-0.3046875,9.58203125,[0. 0. 0. 0. 0. 0. 0. 0. 0.]
1742667051060839949,1742667051,50909060,imu_link,-0.01556396484375,0.09832763671875,-0.00115966796875,0.99505615234375,[0. 0. 0. 0. 0. 0. 0. 0. 0.],0.0,0.0,0.0,[0. 0. 0. 0. 0. 0. 0. 0. 0.],-1.9140625,-0.3046875,9.58203125,[0. 0. 0. 0. 0. 0. 0. 0. 0.]
1742667051072640171,1742667051,70822041,imu_link,-0.01556396484375,0.09832763671875,-0.00115966796875,0.99505615234375,[0. 0. 0. 0. 0. 0. 0. 0. 0.],0.0,0.0,0.0,[0. 0. 0. 0. 0. 0. 0. 0. 0.],-1.9140625,-0.3046875,9.58203125,[0. 0. 0. 0. 0. 0. 0. 0. 0.]
1742667051092549023,1742667051,90777375,imu_link,-0.01556396484375,0.09832763671875,-0.00115966796875,0.99505615234375,[0. 0. 0. 0. 0. 0. 0. 0. 0.],0.0,0.0,0.0,[0. 0. 0. 0. 0. 0. 0. 0. 0.],-1.9140625,-0.3046875,9.58203125,[0. 0. 0. 0. 0. 0. 0. 0. 0.]
1742667051121359949,1742667051,110725393,imu_link,-0.01556396484375,0.09832763671875,-0.00115966796875,0.99505615234375,[0. 0. 0. 0. 0. 0. 0. 0. 0.],0.0,0.0,0.0,[0. 0. 0. 0. 0. 0. 0. 0. 0.],-1.9140625,-0.3046875,9.58203125,[0. 0. 0. 0. 0. 0. 0. 0. 0.]
1742667051146919560,1742667051,130790634,imu_link,-0.01556396484375,0.09832763671875,-0.00115966796875,0.99505615234375,[0. 0. 0. 0. 0. 0. 0. 0. 0.],0.0,0.0,0.0,[0. 0. 0. 0. 0. 0. 0. 0. 0.],-1.9140625,-0.3046875,9.58203125,[0. 0. 0. 0. 0. 0. 0. 0. 0.]
1742667051157501652,1742667051,150713208,imu_link,-0.01556396484375,0.09832763671875,-0.00115966796875,0.99505615234375,[0. 0. 0. 0. 0. 0. 0. 0. 0.],0.0,0.0,0.0,[0. 0. 0. 0. 0. 0. 0. 0. 0.],-1.9140625,-0.3046875,9.58203125,[0. 0. 0. 0. 0. 0. 0. 0. 0.]
1742667051184059726,1742667051,170819263,imu_link,-0.01556396484375,0.09832763671875,-0.00115966796875,0.99505615234375,[0. 0. 0. 0. 0. 0. 0. 0. 0.],0.0,0.0,0.0,[0. 0. 0. 0. 0. 0. 0. 0. 0.],-1.9140625,-0.3046875,9.58203125,[0. 0. 0. 0. 0. 0. 0. 0. 0.]
1742667051192626337,1742667051,190738560,imu_link,-0.01556396484375,0.09832763671875,-0.00115966796875,0.99505615234375,[0. 0. 0. 0. 0. 0. 0. 0. 0.],0.0,0.0,0.0,[0. 0. 0. 0. 0. 0. 0. 0. 0.],-1.9140625,-0.3046875,9.58203125,[0. 0. 0. 0. 0. 0. 0. 0. 0.]
1742667051220644689,1742667051,210782782,imu_link,-0.01556396484375,0.09832763671875,-0.00115966796875,0.99505615234375,[0. 0. 0. 0. 0. 0. 0. 0. 0.],0.0,0.0,0.0,[0. 0. 0. 0. 0. 0. 0. 0. 0.],-1.9140625,-0.3046875,9.58203125,[0. 0. 0. 0. 0. 0. 0. 0. 0.]
1742667051242472115,1742667051,230825449,imu_link,-0.01556396484375,0.09832763671875,-0.00115966796875,0.99505615234375,[0. 0. 0. 0. 0. 0. 0. 0. 0.],0.0,0.0,0.0,[0. 0. 0. 0. 0. 0. 0. 0. 0.],-1.9140625,-0.3046875,9.58203125,[0. 0. 0. 0. 0. 0. 0. 0. 0.]
1742667051256739319,1742667051,250749837,imu_link,-0.01556396484375,0.09832763671875,-0.00115966796875,0.99505615234375,[0. 0. 0. 0. 0. 0. 0. 0. 0.],0.0,0.0,0.0,[0. 0. 0. 0. 0. 0. 0. 0. 0.],-1.9140625,-0.3046875,9.58203125,[0. 0. 0. 0. 0. 0. 0. 0. 0.]
1742667051286533967,1742667051,270822856,imu_link,-0.01556396484375,0.09832763671875,-0.00115966796875,0.99505615234375,[0. 0. 0. 0. 0. 0. 0. 0. 0.],0.0,0.0,0.0,[0. 0. 0. 0. 0. 0. 0. 0. 0.],-1.9140625,-0.3046875,9.58203125,[0. 0. 0. 0. 0. 0. 0. 0. 0.]
1742667051292403486,1742667051,290717504,imu_link,-0.01556396484375,0.09832763671875,-0.00115966796875,0.99505615234375,[0. 0. 0. 0. 0. 0. 0. 0. 0.],0.0,0.0,0.0,[0. 0. 0. 0. 0. 0. 0. 0. 0.],-1.9140625,-0.3046875,9.58203125,[0. 0. 0. 0. 0. 0. 0. 0. 0.]
1742667051320661523,1742667051,310787708,imu_link,-0.01556396484375,0.09832763671875,-0.00115966796875,0.99505615234375,[0. 0. 0. 0. 0. 0. 0. 0. 0.],0.0,0.0,0.0,[0. 0. 0. 0. 0. 0. 0. 0. 0.],-1.9140625,-0.3046875,9.58203125,[0. 0. 0. 0. 0. 0. 0. 0. 0.]
1742667051338445726,1742667051,335008578,imu_link,-0.01556396484375,0.09832763671875,-0.00115966796875,0.99505615234375,[0. 0. 0. 0. 0. 0. 0. 0. 0.],0.0,0.0,0.0,[0. 0. 0. 0. 0. 0. 0. 0. 0.],-1.9140625,-0.3046875,9.58203125,[0. 0. 0. 0. 0. 0. 0. 0. 0.]
1742667051357486597,1742667051,350784448,imu_link,-0.01556396484375,0.09832763671875,-0.00115966796875,0.99505615234375,[0. 0. 0. 0. 0. 0. 0. 0. 0.],0.0,0.0,0.0,[0. 0. 0. 0. 0. 0. 0. 0. 0.],-1.9140625,-0.3046875,9.58203125,[0. 0. 0. 0. 0. 0. 0. 0. 0.]
1742667051383593263,1742667051,371010097,imu_link,-0.01556396484375,0.09832763671875,-0.00115966796875,0.99505615234375,[0. 0. 0. 0. 0. 0. 0. 0. 0.],0.0,0.0,0.0,[0. 0. 0. 0. 0. 0. 0. 0. 0.],-1.9140625,-0.3046875,9.58203125,[0. 0. 0. 0. 0. 0. 0. 0. 0.]
1742667051399525393,1742667051,391026819,imu_link,-0.01556396484375,0.09832763671875,-0.00115966796875,0.99505615234375,[0. 0. 0. 0. 0. 0. 0. 0. 0.],0.0,0.0,0.0,[0. 0. 0. 0. 0. 0. 0. 0. 0.],-1.9140625,-0.3046875,9.58203125,[0. 0. 0. 0. 0. 0. 0. 0. 0.]
1742667051420305967,1742667051,411381060,imu_link,-0.01556396484375,0.09832763671875,-0.00115966796875,0.99505615234375,[0. 0. 0. 0. 0. 0. 0. 0. 0.],0.0,0.0,0.0,[0. 0. 0. 0. 0. 0. 0. 0. 0.],-1.9140625,-0.3046875,9.58203125,[0. 0. 0. 0. 0. 0. 0. 0. 0.]
1742667051447767597,1742667051,431355597,imu_link,-0.01556396484375,0.09832763671875,-0.00115966796875,0.99505615234375,[0. 0. 0. 0. 0. 0. 0. 0. 0.],0.0,0.0,0.0,[0. 0. 0. 0. 0. 0. 0. 0. 0.],-1.87890625,-0.3046875,9.578125,[0. 0. 0. 0. 0. 0. 0. 0. 0.]
1742667051460733578,1742667051,450773319,imu_link,-0.01556396484375,0.09832763671875,-0.00115966796875,0.99505615234375,[0. 0. 0. 0. 0. 0. 0. 0. 0.],0.0,0.0,0.0,[0. 0. 0. 0. 0. 0. 0. 0. 0.],-1.9140625,-0.3046875,9.58203125,[0. 0. 0. 0. 0. 0. 0. 0. 0.]
1742667051482958800,1742667051,470828467,imu_link,-0.01556396484375,0.098388671875,-0.00115966796875,0.99505615234375,[0. 0. 0. 0. 0. 0. 0. 0. 0.],0.0,0.0,0.0,[0. 0. 0. 0. 0. 0. 0. 0. 0.],-1.9140625,-0.3046875,9.58203125,[0. 0. 0. 0. 0. 0. 0. 0. 0.]
1742667051493120708,1742667051,490754226,imu_link,-0.01556396484375,0.098388671875,-0.00115966796875,0.99505615234375,[0. 0. 0. 0. 0. 0. 0. 0. 0.],0.0,0.0,0.0,[0. 0. 0. 0. 0. 0. 0. 0. 0.],-1.9140625,-0.3046875,9.58203125,[0. 0. 0. 0. 0. 0. 0. 0. 0.]
1742667051521444560,1742667051,510779948,imu_link,-0.01556396484375,0.098388671875,-0.00115966796875,0.99505615234375,[0. 0. 0. 0. 0. 0. 0. 0. 0.],0.0,0.0,0.0,[0. 0. 0. 0. 0. 0. 0. 0. 0.],-1.9140625,-0.3046875,9.58203125,[0. 0. 0. 0. 0. 0. 0. 0. 0.]
1742667051544222652,1742667051,530747171,imu_link,-0.01556396484375,0.098388671875,-0.00115966796875,0.99505615234375,[0. 0. 0. 0. 0. 0. 0. 0. 0.],0.0,0.0,0.0,[0. 0. 0. 0. 0. 0. 0. 0. 0.],-1.9140625,-0.3046875,9.58203125,[0. 0. 0. 0. 0. 0. 0. 0. 0.]
1742667051562397893,1742667051,551101522,imu_link,-0.01556396484375,0.098388671875,-0.00115966796875,0.99505615234375,[0. 0. 0. 0. 0. 0. 0. 0. 0.],0.0,0.0,0.0,[0. 0. 0. 0. 0. 0. 0. 0. 0.],-1.9140625,-0.3046875,9.58203125,[0. 0. 0. 0. 0. 0. 0. 0. 0.]
1742667051582232245,1742667051,570820059,imu_link,-0.01556396484375,0.098388671875,-0.00115966796875,0.99505615234375,[0. 0. 0. 0. 0. 0. 0. 0. 0.],0.0,0.0,0.0,[0. 0. 0. 0. 0. 0. 0. 0. 0.],-1.9140625,-0.3046875,9.58203125,[0. 0. 0. 0. 0. 0. 0. 0. 0.]
1742667051593693115,1742667051,590739615,imu_link,-0.01556396484375,0.098388671875,-0.00115966796875,0.99505615234375,[0. 0. 0. 0. 0. 0. 0. 0. 0.],0.0,0.0,0.0,[0. 0. 0. 0. 0. 0. 0. 0. 0.],-1.9140625,-0.3046875,9.58203125,[0. 0. 0. 0. 0. 0. 0. 0. 0.]
1742667051620750356,1742667051,610768059,imu_link,-0.01556396484375,0.098388671875,-0.00115966796875,0.99505615234375,[0. 0. 0. 0. 0. 0. 0. 0. 0.],0.0,0.0,0.0,[0. 0. 0. 0. 0. 0. 0. 0. 0.],-1.87890625,-0.3046875,9.578125,[0. 0. 0. 0. 0. 0. 0. 0. 0.]
1742667051635340134,1742667051,632008356,imu_link,-0.01556396484375,0.098388671875,-0.00115966796875,0.99505615234375,[0. 0. 0. 0. 0. 0. 0. 0. 0.],0.0,0.0,0.0,[0. 0. 0. 0. 0. 0. 0. 0. 0.],-1.87890625,-0.3046875,9.578125,[0. 0. 0. 0. 0. 0. 0. 0. 0.]
1742667051661333263,1742667051,650788152,imu_link,-0.01556396484375,0.098388671875,-0.00115966796875,0.99505615234375,[0. 0. 0. 0. 0. 0. 0. 0. 0.],0.0,0.0,0.0,[0. 0. 0. 0. 0. 0. 0. 0. 0.],-1.9140625,-0.3046875,9.58203125,[0. 0. 0. 0. 0. 0. 0. 0. 0.]
1742667051684986633,1742667051,670735208,imu_link,-0.01556396484375,0.098388671875,-0.00115966796875,0.99505615234375,[0. 0. 0. 0. 0. 0. 0. 0. 0.],0.0,0.0,0.0,[0. 0. 0. 0. 0. 0. 0. 0. 0.],-1.9140625,-0.3046875,9.58203125,[0. 0. 0. 0. 0. 0. 0. 0. 0.]
1742667051694061337,1742667051,690842115,imu_link,-0.01556396484375,0.098388671875,-0.00115966796875,0.99505615234375,[0. 0. 0. 0. 0. 0. 0. 0. 0.],0.0,0.0,0.0,[0. 0. 0. 0. 0. 0. 0. 0. 0.],-1.9140625,-0.3046875,9.58203125,[0. 0. 0. 0. 0. 0. 0. 0. 0.]
1742667051730331578,1742667051,710902985,imu_link,-0.01556396484375,0.09832763671875,-0.00115966796875,0.99505615234375,[0. 0. 0. 0. 0. 0. 0. 0. 0.],0.0,0.0,0.0,[0. 0. 0. 0. 0. 0. 0. 0. 0.],-1.9140625,-0.3046875,9.58203125,[0. 0. 0. 0. 0. 0. 0. 0. 0.]
1742667051736217078,1742667051,732813596,imu_link,-0.01556396484375,0.09832763671875,-0.00115966796875,0.99505615234375,[0. 0. 0. 0. 0. 0. 0. 0. 0.],0.0,0.0,0.0,[0. 0. 0. 0. 0. 0. 0. 0. 0.],-1.9140625,-0.3046875,9.58203125,[0. 0. 0. 0. 0. 0. 0. 0. 0.]
1742667051758878059,1742667051,750813948,imu_link,-0.01556396484375,0.09832763671875,-0.00115966796875,0.99505615234375,[0. 0. 0. 0. 0. 0. 0. 0. 0.],0.0,0.0,0.0,[0. 0. 0. 0. 0. 0. 0. 0. 0.],-1.9140625,-0.3046875,9.58203125,[0. 0. 0. 0. 0. 0. 0. 0. 0.]
1742667051784435207,1742667051,770796226,imu_link,-0.01556396484375,0.09832763671875,-0.00115966796875,0.99505615234375,[0. 0. 0. 0. 0. 0. 0. 0. 0.],0.0,0.0,0.0,[0. 0. 0. 0. 0. 0. 0. 0. 0.],-1.9140625,-0.3046875,9.58203125,[0. 0. 0. 0. 0. 0. 0. 0. 0.]
1742667051793828448,1742667051,790778726,imu_link,-0.01556396484375,0.09832763671875,-0.00115966796875,0.99505615234375,[0. 0. 0. 0. 0. 0. 0. 0. 0.],0.0,0.0,0.0,[0. 0. 0. 0. 0. 0. 0. 0. 0.],-1.9140625,-0.3046875,9.58203125,[0. 0. 0. 0. 0. 0. 0. 0. 0.]
1742667051830968319,1742667051,810979300,imu_link,-0.01556396484375,0.09832763671875,-0.00115966796875,0.99505615234375,[0. 0. 0. 0. 0. 0. 0. 0. 0.],0.0,0.0,0.0,[0. 0. 0. 0. 0. 0. 0. 0. 0.],-1.9140625,-0.3046875,9.58203125,[0. 0. 0. 0. 0. 0. 0. 0. 0.]
1742667051840441911,1742667051,838691393,imu_link,-0.01556396484375,0.09832763671875,-0.00115966796875,0.99505615234375,[0. 0. 0. 0. 0. 0. 0. 0. 0.],0.0,0.0,0.0,[0. 0. 0. 0. 0. 0. 0. 0. 0.],-1.9140625,-0.3046875,9.58203125,[0. 0. 0. 0. 0. 0. 0. 0. 0.]
1742667051858802430,1742667051,850746689,imu_link,-0.01556396484375,0.09832763671875,-0.00115966796875,0.99505615234375,[0. 0. 0. 0. 0. 0. 0. 0. 0.],0.0,0.0,0.0,[0. 0. 0. 0. 0. 0. 0. 0. 0.],-1.9140625,-0.3046875,9.58203125,[0. 0. 0. 0. 0. 0. 0. 0. 0.]
1742667051884608170,1742667051,870980059,imu_link,-0.01556396484375,0.09832763671875,-0.00115966796875,0.99505615234375,[0. 0. 0. 0. 0. 0. 0. 0. 0.],0.0,0.0,0.0,[0. 0. 0. 0. 0. 0. 0. 0. 0.],-1.9140625,-0.3046875,9.58203125,[0. 0. 0. 0. 0. 0. 0. 0. 0.]
1742667051893035133,1742667051,890716041,imu_link,-0.01556396484375,0.09832763671875,-0.00115966796875,0.99505615234375,[0. 0. 0. 0. 0. 0. 0. 0. 0.],0.0,0.0,0.0,[0. 0. 0. 0. 0. 0. 0. 0. 0.],-1.9140625,-0.3046875,9.58203125,[0. 0. 0. 0. 0. 0. 0. 0. 0.]
1742667051934326078,1742667051,910909004,imu_link,-0.01556396484375,0.09832763671875,-0.00115966796875,0.99505615234375,[0. 0. 0. 0. 0. 0. 0. 0. 0.],0.0,0.0,0.0,[0. 0. 0. 0. 0. 0. 0. 0. 0.],-1.87890625,-0.3046875,9.578125,[0. 0. 0. 0. 0. 0. 0. 0. 0.]
1742667051939121430,1742667051,936916670,imu_link,-0.01556396484375,0.09832763671875,-0.00115966796875,0.99505615234375,[0. 0. 0. 0. 0. 0. 0. 0. 0.],0.0,0.0,0.0,[0. 0. 0. 0. 0. 0. 0. 0. 0.],-1.9140625,-0.3046875,9.58203125,[0. 0. 0. 0. 0. 0. 0. 0. 0.]
1742667051958373430,1742667051,950768652,imu_link,-0.01556396484375,0.09832763671875,-0.00115966796875,0.99505615234375,[0. 0. 0. 0. 0. 0. 0. 0. 0.],0.0,0.0,0.0,[0. 0. 0. 0. 0. 0. 0. 0. 0.],-1.9140625,-0.3046875,9.58203125,[0. 0. 0. 0. 0. 0. 0. 0. 0.]
1742667051983079856,1742667051,970787689,imu_link,-0.01556396484375,0.0982666015625,-0.00115966796875,0.99505615234375,[0. 0. 0. 0. 0. 0. 0. 0. 0.],0.0,0.0,0.0,[0. 0. 0. 0. 0. 0. 0. 0. 0.],-1.9140625,-0.3046875,9.58203125,[0. 0. 0. 0. 0. 0. 0. 0. 0.]
1742667051998585133,1742667051,990780356,imu_link,-0.01556396484375,0.0982666015625,-0.00115966796875,0.99505615234375,[0. 0. 0. 0. 0. 0. 0. 0. 0.],0.0,0.0,0.0,[0. 0. 0. 0. 0. 0. 0. 0. 0.],-1.9140625,-0.3046875,9.58203125,[0. 0. 0. 0. 0. 0. 0. 0. 0.]
1742667052018732004,1742667052,10825707,imu_link,-0.01556396484375,0.0982666015625,-0.00115966796875,0.99505615234375,[0. 0. 0. 0. 0. 0. 0. 0. 0.],0.0,0.0,0.0,[0. 0. 0. 0. 0. 0. 0. 0. 0.],-1.9140625,-0.3046875,9.58203125,[0. 0. 0. 0. 0. 0. 0. 0. 0.]
1742667052045358096,1742667052,30779393,imu_link,-0.01556396484375,0.0982666015625,-0.00115966796875,0.99505615234375,[0. 0. 0. 0. 0. 0. 0. 0. 0.],0.0,0.0,0.0,[0. 0. 0. 0. 0. 0. 0. 0. 0.],-1.87890625,-0.3046875,9.578125,[0. 0. 0. 0. 0. 0. 0. 0. 0.]
1742667052061253578,1742667052,50780337,imu_link,-0.01556396484375,0.0982666015625,-0.00115966796875,0.99505615234375,[0. 0. 0. 0. 0. 0. 0. 0. 0.],0.0,0.0,0.0,[0. 0. 0. 0. 0. 0. 0. 0. 0.],-1.87890625,-0.3046875,9.578125,[0. 0. 0. 0. 0. 0. 0. 0. 0.]
1742667052083636448,1742667052,70791633,imu_link,-0.01556396484375,0.0982666015625,-0.00115966796875,0.99505615234375,[0. 0. 0. 0. 0. 0. 0. 0. 0.],0.0,0.0,0.0,[0. 0. 0. 0. 0. 0. 0. 0. 0.],-1.87890625,-0.3046875,9.578125,[0. 0. 0. 0. 0. 0. 0. 0. 0.]
1742667052094264004,1742667052,90722763,imu_link,-0.01556396484375,0.0982666015625,-0.00115966796875,0.99505615234375,[0. 0. 0. 0. 0. 0. 0. 0. 0.],0.0,0.0,0.0,[0. 0. 0. 0. 0. 0. 0. 0. 0.],-1.9140625,-0.3046875,9.58203125,[0. 0. 0. 0. 0. 0. 0. 0. 0.]
1742667052130613022,1742667052,110842189,imu_link,-0.01556396484375,0.0982666015625,-0.00115966796875,0.99505615234375,[0. 0. 0. 0. 0. 0. 0. 0. 0.],0.0,0.0,0.0,[0. 0. 0. 0. 0. 0. 0. 0. 0.],-1.9140625,-0.3046875,9.58203125,[0. 0. 0. 0. 0. 0. 0. 0. 0.]
1742667052136567763,1742667052,133162448,imu_link,-0.01556396484375,0.0982666015625,-0.00115966796875,0.99505615234375,[0. 0. 0. 0. 0. 0. 0. 0. 0.],0.0,0.0,0.0,[0. 0. 0. 0. 0. 0. 0. 0. 0.],-1.9140625,-0.3046875,9.58203125,[0. 0. 0. 0. 0. 0. 0. 0. 0.]
1742667052162359800,1742667052,150752059,imu_link,-0.01556396484375,0.0982666015625,-0.00115966796875,0.99505615234375,[0. 0. 0. 0. 0. 0. 0. 0. 0.],0.0,0.0,0.0,[0. 0. 0. 0. 0. 0. 0. 0. 0.],-1.9140625,-0.3046875,9.58203125,[0. 0. 0. 0. 0. 0. 0. 0. 0.]
1742667052187771559,1742667052,170751559,imu_link,-0.01556396484375,0.0982666015625,-0.00115966796875,0.99505615234375,[0. 0. 0. 0. 0. 0. 0. 0. 0.],0.0,0.0,0.0,[0. 0. 0. 0. 0. 0. 0. 0. 0.],-1.9140625,-0.3046875,9.58203125,[0. 0. 0. 0. 0. 0. 0. 0. 0.]
1742667052194148781,1742667052,190739189,imu_link,-0.01556396484375,0.0982666015625,-0.00115966796875,0.99505615234375,[0. 0. 0. 0. 0. 0. 0. 0. 0.],0.0,0.0,0.0,[0. 0. 0. 0. 0. 0. 0. 0. 0.],-1.9140625,-0.3046875,9.58203125,[0. 0. 0. 0. 0. 0. 0. 0. 0.]
1742667052231493411,1742667052,210861189,imu_link,-0.01556396484375,0.09820556640625,-0.00115966796875,0.99505615234375,[0. 0. 0. 0. 0. 0. 0. 0. 0.],0.0,0.0,0.0,[0. 0. 0. 0. 0. 0. 0. 0. 0.],-1.9140625,-0.3046875,9.58203125,[0. 0. 0. 0. 0. 0. 0. 0. 0.]
1742667052237679707,1742667052,234066948,imu_link,-0.01556396484375,0.09820556640625,-0.00115966796875,0.99505615234375,[0. 0. 0. 0. 0. 0. 0. 0. 0.],0.0,0.0,0.0,[0. 0. 0. 0. 0. 0. 0. 0. 0.],-1.9140625,-0.3046875,9.58203125,[0. 0. 0. 0. 0. 0. 0. 0. 0.]
1742667052261690207,1742667052,250776448,imu_link,-0.01556396484375,0.09820556640625,-0.00115966796875,0.99505615234375,[0. 0. 0. 0. 0. 0. 0. 0. 0.],0.0,0.0,0.0,[0. 0. 0. 0. 0. 0. 0. 0. 0.],-1.87890625,-0.3046875,9.578125,[0. 0. 0. 0. 0. 0. 0. 0. 0.]
1742667052285140929,1742667052,270799966,imu_link,-0.01556396484375,0.09820556640625,-0.00115966796875,0.99505615234375,[0. 0. 0. 0. 0. 0. 0. 0. 0.],0.0,0.0,0.0,[0. 0. 0. 0. 0. 0. 0. 0. 0.],-1.9140625,-0.3046875,9.58203125,[0. 0. 0. 0. 0. 0. 0. 0. 0.]
1742667052294103818,1742667052,290743855,imu_link,-0.01556396484375,0.09820556640625,-0.00115966796875,0.99505615234375,[0. 0. 0. 0. 0. 0. 0. 0. 0.],0.0,0.0,0.0,[0. 0. 0. 0. 0. 0. 0. 0. 0.],-1.9140625,-0.3046875,9.58203125,[0. 0. 0. 0. 0. 0. 0. 0. 0.]
1742667052329846578,1742667052,310846781,imu_link,-0.01556396484375,0.09820556640625,-0.00115966796875,0.99505615234375,[0. 0. 0. 0. 0. 0. 0. 0. 0.],0.0,0.0,0.0,[0. 0. 0. 0. 0. 0. 0. 0. 0.],-1.9140625,-0.3046875,9.58203125,[0. 0. 0. 0. 0. 0. 0. 0. 0.]
1742667052336074170,1742667052,332667078,imu_link,-0.01556396484375,0.09820556640625,-0.00115966796875,0.99505615234375,[0. 0. 0. 0. 0. 0. 0. 0. 0.],0.0,0.0,0.0,[0. 0. 0. 0. 0. 0. 0. 0. 0.],-1.9140625,-0.3046875,9.58203125,[0. 0. 0. 0. 0. 0. 0. 0. 0.]
1742667052358116633,1742667052,350774615,imu_link,-0.01556396484375,0.09820556640625,-0.00115966796875,0.99505615234375,[0. 0. 0. 0. 0. 0. 0. 0. 0.],0.0,0.0,0.0,[0. 0. 0. 0. 0. 0. 0. 0. 0.],-1.9140625,-0.3046875,9.58203125,[0. 0. 0. 0. 0. 0. 0. 0. 0.]
1742667052384639966,1742667052,370990559,imu_link,-0.01556396484375,0.09820556640625,-0.00115966796875,0.99505615234375,[0. 0. 0. 0. 0. 0. 0. 0. 0.],0.0,0.0,0.0,[0. 0. 0. 0. 0. 0. 0. 0. 0.],-1.9140625,-0.3046875,9.58203125,[0. 0. 0. 0. 0. 0. 0. 0. 0.]
1742667052393683115,1742667052,390725985,imu_link,-0.01556396484375,0.09820556640625,-0.00115966796875,0.99505615234375,[0. 0. 0. 0. 0. 0. 0. 0. 0.],0.0,0.0,0.0,[0. 0. 0. 0. 0. 0. 0. 0. 0.],-1.9140625,-0.3046875,9.58203125,[0. 0. 0. 0. 0. 0. 0. 0. 0.]
1742667052432294096,1742667052,410870948,imu_link,-0.01556396484375,0.09820556640625,-0.00115966796875,0.99505615234375,[0. 0. 0. 0. 0. 0. 0. 0. 0.],0.0,0.0,0.0,[0. 0. 0. 0. 0. 0. 0. 0. 0.],-1.9140625,-0.3046875,9.58203125,[0. 0. 0. 0. 0. 0. 0. 0. 0.]
1742667052441124577,1742667052,438664577,imu_link,-0.01556396484375,0.09820556640625,-0.00115966796875,0.99505615234375,[0. 0. 0. 0. 0. 0. 0. 0. 0.],0.0,0.0,0.0,[0. 0. 0. 0. 0. 0. 0. 0. 0.],-1.9140625,-0.3046875,9.58203125,[0. 0. 0. 0. 0. 0. 0. 0. 0.]
1742667052457998670,1742667052,450755522,imu_link,-0.01556396484375,0.09820556640625,-0.00115966796875,0.99505615234375,[0. 0. 0. 0. 0. 0. 0. 0. 0.],0.0,0.0,0.0,[0. 0. 0. 0. 0. 0. 0. 0. 0.],-1.9140625,-0.3046875,9.58203125,[0. 0. 0. 0. 0. 0. 0. 0. 0.]
1742667052484931300,1742667052,470744596,imu_link,-0.01556396484375,0.09820556640625,-0.00115966796875,0.99505615234375,[0. 0. 0. 0. 0. 0. 0. 0. 0.],0.0,0.0,0.0,[0. 0. 0. 0. 0. 0. 0. 0. 0.],-1.87890625,-0.3046875,9.578125,[0. 0. 0. 0. 0. 0. 0. 0. 0.]
1742667052494074855,1742667052,490720633,imu_link,-0.01556396484375,0.09820556640625,-0.00115966796875,0.99505615234375,[0. 0. 0. 0. 0. 0. 0. 0. 0.],0.0,0.0,0.0,[0. 0. 0. 0. 0. 0. 0. 0. 0.],-1.87890625,-0.3046875,9.578125,[0. 0. 0. 0. 0. 0. 0. 0. 0.]
1742667052514364040,1742667052,510856281,imu_link,-0.01556396484375,0.09820556640625,-0.00115966796875,0.99505615234375,[0. 0. 0. 0. 0. 0. 0. 0. 0.],0.0,0.0,0.0,[0. 0. 0. 0. 0. 0. 0. 0. 0.],-1.9140625,-0.3046875,9.58203125,[0. 0. 0. 0. 0. 0. 0. 0. 0.]
1742667052546331855,1742667052,530749577,imu_link,-0.01556396484375,0.09814453125,-0.00115966796875,0.99505615234375,[0. 0. 0. 0. 0. 0. 0. 0. 0.],0.0,0.0,0.0,[0. 0. 0. 0. 0. 0. 0. 0. 0.],-1.9140625,-0.3046875,9.58203125,[0. 0. 0. 0. 0. 0. 0. 0. 0.]
1742667052558142837,1742667052,550751207,imu_link,-0.01556396484375,0.09814453125,-0.00115966796875,0.99505615234375,[0. 0. 0. 0. 0. 0. 0. 0. 0.],0.0,0.0,0.0,[0. 0. 0. 0. 0. 0. 0. 0. 0.],-1.9140625,-0.3046875,9.58203125,[0. 0. 0. 0. 0. 0. 0. 0. 0.]
1742667052584987170,1742667052,570738429,imu_link,-0.01556396484375,0.09814453125,-0.00115966796875,0.99505615234375,[0. 0. 0. 0. 0. 0. 0. 0. 0.],0.0,0.0,0.0,[0. 0. 0. 0. 0. 0. 0. 0. 0.],-1.9140625,-0.3046875,9.58203125,[0. 0. 0. 0. 0. 0. 0. 0. 0.]
1742667052597951318,1742667052,590743744,imu_link,-0.01556396484375,0.09814453125,-0.00115966796875,0.99505615234375,[0. 0. 0. 0. 0. 0. 0. 0. 0.],0.0,0.0,0.0,[0. 0. 0. 0. 0. 0. 0. 0. 0.],-1.9140625,-0.3046875,9.58203125,[0. 0. 0. 0. 0. 0. 0. 0. 0.]
1742667052618037059,1742667052,610854429,imu_link,-0.01556396484375,0.09814453125,-0.00115966796875,0.99505615234375,[0. 0. 0. 0. 0. 0. 0. 0. 0.],0.0,0.0,0.0,[0. 0. 0. 0. 0. 0. 0. 0. 0.],-1.9140625,-0.3046875,9.58203125,[0. 0. 0. 0. 0. 0. 0. 0. 0.]
1742667052645170133,1742667052,630776151,imu_link,-0.01556396484375,0.09814453125,-0.00115966796875,0.99505615234375,[0. 0. 0. 0. 0. 0. 0. 0. 0.],0.0,0.0,0.0,[0. 0. 0. 0. 0. 0. 0. 0. 0.],-1.9140625,-0.3046875,9.58203125,[0. 0. 0. 0. 0. 0. 0. 0. 0.]
1742667052660247503,1742667052,650775300,imu_link,-0.01556396484375,0.09814453125,-0.00115966796875,0.99505615234375,[0. 0. 0. 0. 0. 0. 0. 0. 0.],0.0,0.0,0.0,[0. 0. 0. 0. 0. 0. 0. 0. 0.],-1.9140625,-0.3046875,9.58203125,[0. 0. 0. 0. 0. 0. 0. 0. 0.]
1742667052684073151,1742667052,670736263,imu_link,-0.01556396484375,0.09814453125,-0.00115966796875,0.99505615234375,[0. 0. 0. 0. 0. 0. 0. 0. 0.],0.0,0.0,0.0,[0. 0. 0. 0. 0. 0. 0. 0. 0.],-1.9140625,-0.3046875,9.58203125,[0. 0. 0. 0. 0. 0. 0. 0. 0.]
1742667052694469003,1742667052,690746077,imu_link,-0.01556396484375,0.09814453125,-0.00115966796875,0.99505615234375,[0. 0. 0. 0. 0. 0. 0. 0. 0.],0.0,0.0,0.0,[0. 0. 0. 0. 0. 0. 0. 0. 0.],-1.9140625,-0.3046875,9.58203125,[0. 0. 0. 0. 0. 0. 0. 0. 0.]
1742667052731681411,1742667052,710788429,imu_link,-0.01556396484375,0.09814453125,-0.00115966796875,0.99505615234375,[0. 0. 0. 0. 0. 0. 0. 0. 0.],0.0,0.0,0.0,[0. 0. 0. 0. 0. 0. 0. 0. 0.],-1.9140625,-0.3046875,9.58203125,[0. 0. 0. 0. 0. 0. 0. 0. 0.]
1742667052736950114,1742667052,734239392,imu_link,-0.01556396484375,0.09814453125,-0.00115966796875,0.99505615234375,[0. 0. 0. 0. 0. 0. 0. 0. 0.],0.0,0.0,0.0,[0. 0. 0. 0. 0. 0. 0. 0. 0.],-1.9140625,-0.3046875,9.58203125,[0. 0. 0. 0. 0. 0. 0. 0. 0.]
1742667052762335837,1742667052,750832374,imu_link,-0.01556396484375,0.09814453125,-0.00115966796875,0.99505615234375,[0. 0. 0. 0. 0. 0. 0. 0. 0.],0.0,0.0,0.0,[0. 0. 0. 0. 0. 0. 0. 0. 0.],-1.9140625,-0.3046875,9.58203125,[0. 0. 0. 0. 0. 0. 0. 0. 0.]
1742667052788078392,1742667052,771321170,imu_link,-0.01556396484375,0.09814453125,-0.00115966796875,0.99505615234375,[0. 0. 0. 0. 0. 0. 0. 0. 0.],0.0,0.0,0.0,[0. 0. 0. 0. 0. 0. 0. 0. 0.],-1.9140625,-0.3046875,9.58203125,[0. 0. 0. 0. 0. 0. 0. 0. 0.]
1742667052794408633,1742667052,790725392,imu_link,-0.01556396484375,0.09814453125,-0.00115966796875,0.99505615234375,[0. 0. 0. 0. 0. 0. 0. 0. 0.],0.0,0.0,0.0,[0. 0. 0. 0. 0. 0. 0. 0. 0.],-1.9140625,-0.3046875,9.58203125,[0. 0. 0. 0. 0. 0. 0. 0. 0.]
1742667052831313762,1742667052,810882059,imu_link,-0.01556396484375,0.09820556640625,-0.00115966796875,0.99505615234375,[0. 0. 0. 0. 0. 0. 0. 0. 0.],0.0,0.0,0.0,[0. 0. 0. 0. 0. 0. 0. 0. 0.],-1.80078125,-0.421875,9.58203125,[0. 0. 0. 0. 0. 0. 0. 0. 0.]
1742667052837752003,1742667052,834010003,imu_link,-0.01556396484375,0.09820556640625,-0.00115966796875,0.99505615234375,[0. 0. 0. 0. 0. 0. 0. 0. 0.],0.0,0.0,0.0,[0. 0. 0. 0. 0. 0. 0. 0. 0.],-1.80078125,-0.421875,9.58203125,[0. 0. 0. 0. 0. 0. 0. 0. 0.]
1742667052861776707,1742667052,850934614,imu_link,-0.01556396484375,0.09820556640625,-0.00115966796875,0.99505615234375,[0. 0. 0. 0. 0. 0. 0. 0. 0.],0.03125,-0.001953125,0.08984375,[0. 0. 0. 0. 0. 0. 0. 0. 0.],-1.1875,-0.765625,9.5390625,[0. 0. 0. 0. 0. 0. 0. 0. 0.]
1742667052884589540,1742667052,870929318,imu_link,-0.01483154296875,0.09814453125,0.00067138671875,0.99505615234375,[0. 0. 0. 0. 0. 0. 0. 0. 0.],0.03125,-0.001953125,0.08984375,[0. 0. 0. 0. 0. 0. 0. 0. 0.],-0.57421875,-0.95703125,9.7265625,[0. 0. 0. 0. 0. 0. 0. 0. 0.]
1742667052894118688,1742667052,890740022,imu_link,-0.01483154296875,0.09814453125,0.00067138671875,0.99505615234375,[0. 0. 0. 0. 0. 0. 0. 0. 0.],0.03125,-0.001953125,0.08984375,[0. 0. 0. 0. 0. 0. 0. 0. 0.],-0.57421875,-0.95703125,9.7265625,[0. 0. 0. 0. 0. 0. 0. 0. 0.]
1742667052931459170,1742667052,910893633,imu_link,-0.01458740234375,0.09814453125,0.0045166015625,0.99505615234375,[0. 0. 0. 0. 0. 0. 0. 0. 0.],-0.01171875,0.0078125,0.162109375,[0. 0. 0. 0. 0. 0. 0. 0. 0.],-0.49609375,-0.61328125,9.765625,[0. 0. 0. 0. 0. 0. 0. 0. 0.]
1742667052936766596,1742667052,933967022,imu_link,-0.01458740234375,0.09814453125,0.0045166015625,0.99505615234375,[0. 0. 0. 0. 0. 0. 0. 0. 0.],-0.01171875,0.0078125,0.162109375,[0. 0. 0. 0. 0. 0. 0. 0. 0.],-0.49609375,-0.61328125,9.765625,[0. 0. 0. 0. 0. 0. 0. 0. 0.]
1742667052962757929,1742667052,950824651,imu_link,-0.01458740234375,0.09814453125,0.0045166015625,0.99505615234375,[0. 0. 0. 0. 0. 0. 0. 0. 0.],-0.001953125,0.0078125,0.09375,[0. 0. 0. 0. 0. 0. 0. 0. 0.],-0.3046875,-0.7265625,9.61328125,[0. 0. 0. 0. 0. 0. 0. 0. 0.]
1742667052985043188,1742667052,970760762,imu_link,-0.0147705078125,0.0980224609375,0.0069580078125,0.99505615234375,[0. 0. 0. 0. 0. 0. 0. 0. 0.],-0.001953125,0.0078125,0.09375,[0. 0. 0. 0. 0. 0. 0. 0. 0.],-0.078125,-0.99609375,9.73046875,[0. 0. 0. 0. 0. 0. 0. 0. 0.]
1742667052994745948,1742667052,990717577,imu_link,-0.0147705078125,0.0980224609375,0.0069580078125,0.99505615234375,[0. 0. 0. 0. 0. 0. 0. 0. 0.],-0.001953125,0.0078125,0.09375,[0. 0. 0. 0. 0. 0. 0. 0. 0.],-0.078125,-0.99609375,9.73046875,[0. 0. 0. 0. 0. 0. 0. 0. 0.]
1742667053030995559,1742667053,10862929,imu_link,-0.01470947265625,0.09796142578125,0.01275634765625,0.9949951171875,[0. 0. 0. 0. 0. 0. 0. 0. 0.],0.005859375,0.0078125,0.2578125,[0. 0. 0. 0. 0. 0. 0. 0. 0.],-0.8828125,-0.7265625,9.46484375,[0. 0. 0. 0. 0. 0. 0. 0. 0.]
1742667053038710355,1742667053,36994818,imu_link,-0.01470947265625,0.09796142578125,0.01275634765625,0.9949951171875,[0. 0. 0. 0. 0. 0. 0. 0. 0.],0.005859375,0.0078125,0.2578125,[0. 0. 0. 0. 0. 0. 0. 0. 0.],-1.9140625,-0.0390625,9.7265625,[0. 0. 0. 0. 0. 0. 0. 0. 0.]
1742667053058228151,1742667053,51080447,imu_link,-0.01470947265625,0.09796142578125,0.01275634765625,0.9949951171875,[0. 0. 0. 0. 0. 0. 0. 0. 0.],-0.0234375,0.00390625,0.197265625,[0. 0. 0. 0. 0. 0. 0. 0. 0.],-1.9140625,-0.0390625,9.7265625,[0. 0. 0. 0. 0. 0. 0. 0. 0.]
1742667053085019855,1742667053,70762133,imu_link,-0.014892578125,0.09783935546875,0.0179443359375,0.99493408203125,[0. 0. 0. 0. 0. 0. 0. 0. 0.],-0.0234375,0.00390625,0.197265625,[0. 0. 0. 0. 0. 0. 0. 0. 0.],-2.296875,0.0390625,9.46484375,[0. 0. 0. 0. 0. 0. 0. 0. 0.]
1742667053094269596,1742667053,90789725,imu_link,-0.014892578125,0.09783935546875,0.0179443359375,0.99493408203125,[0. 0. 0. 0. 0. 0. 0. 0. 0.],-0.0234375,0.00390625,0.197265625,[0. 0. 0. 0. 0. 0. 0. 0. 0.],-2.296875,0.0390625,9.46484375,[0. 0. 0. 0. 0. 0. 0. 0. 0.]
1742667053114164003,1742667053,110808281,imu_link,-0.014892578125,0.09783935546875,0.0179443359375,0.99493408203125,[0. 0. 0. 0. 0. 0. 0. 0. 0.],-0.033203125,0.0,0.12109375,[0. 0. 0. 0. 0. 0. 0. 0. 0.],-2.296875,0.0,9.69140625,[0. 0. 0. 0. 0. 0. 0. 0. 0.]
1742667053145758651,1742667053,130814410,imu_link,-0.01556396484375,0.0975341796875,0.0211181640625,0.994873046875,[0. 0. 0. 0. 0. 0. 0. 0. 0.],-0.033203125,0.0,0.12109375,[0. 0. 0. 0. 0. 0. 0. 0. 0.],-2.18359375,-0.15234375,9.42578125,[0. 0. 0. 0. 0. 0. 0. 0. 0.]
1742667053157456947,1742667053,150751651,imu_link,-0.01556396484375,0.0975341796875,0.0211181640625,0.994873046875,[0. 0. 0. 0. 0. 0. 0. 0. 0.],-0.01953125,0.0078125,0.140625,[0. 0. 0. 0. 0. 0. 0. 0. 0.],-2.18359375,-0.15234375,9.42578125,[0. 0. 0. 0. 0. 0. 0. 0. 0.]
1742667053184799596,1742667053,170756392,imu_link,-0.01593017578125,0.09722900390625,0.02447509765625,0.99481201171875,[0. 0. 0. 0. 0. 0. 0. 0. 0.],-0.01953125,0.0078125,0.140625,[0. 0. 0. 0. 0. 0. 0. 0. 0.],-2.3359375,-0.078125,9.578125,[0. 0. 0. 0. 0. 0. 0. 0. 0.]
1742667053202361077,1742667053,190746207,imu_link,-0.01593017578125,0.09722900390625,0.02447509765625,0.99481201171875,[0. 0. 0. 0. 0. 0. 0. 0. 0.],-0.01953125,0.0078125,0.140625,[0. 0. 0. 0. 0. 0. 0. 0. 0.],-2.375,-0.11328125,9.5,[0. 0. 0. 0. 0. 0. 0. 0. 0.]
1742667053214381744,1742667053,210968781,imu_link,-0.01593017578125,0.09722900390625,0.02447509765625,0.99481201171875,[0. 0. 0. 0. 0. 0. 0. 0. 0.],-0.001953125,0.0078125,0.158203125,[0. 0. 0. 0. 0. 0. 0. 0. 0.],-2.375,-0.11328125,9.5,[0. 0. 0. 0. 0. 0. 0. 0. 0.]
1742667053245202151,1742667053,230893373,imu_link,-0.015869140625,0.09698486328125,0.0283203125,0.9947509765625,[0. 0. 0. 0. 0. 0. 0. 0. 0.],-0.001953125,0.0078125,0.158203125,[0. 0. 0. 0. 0. 0. 0. 0. 0.],-2.453125,-0.078125,9.61328125,[0. 0. 0. 0. 0. 0. 0. 0. 0.]
1742667053260982725,1742667053,250735892,imu_link,-0.015869140625,0.09698486328125,0.0283203125,0.9947509765625,[0. 0. 0. 0. 0. 0. 0. 0. 0.],0.00390625,0.0078125,0.150390625,[0. 0. 0. 0. 0. 0. 0. 0. 0.],-2.375,-0.078125,9.5390625,[0. 0. 0. 0. 0. 0. 0. 0. 0.]
1742667053284062947,1742667053,270814299,imu_link,-0.01580810546875,0.0968017578125,0.031982421875,0.99468994140625,[0. 0. 0. 0. 0. 0. 0. 0. 0.],0.00390625,0.0078125,0.150390625,[0. 0. 0. 0. 0. 0. 0. 0. 0.],-2.375,-0.078125,9.5390625,[0. 0. 0. 0. 0. 0. 0. 0. 0.]
1742667053294232984,1742667053,290715781,imu_link,-0.01580810546875,0.0968017578125,0.031982421875,0.99468994140625,[0. 0. 0. 0. 0. 0. 0. 0. 0.],0.00390625,0.0078125,0.150390625,[0. 0. 0. 0. 0. 0. 0. 0. 0.],-2.296875,-0.15234375,9.58203125,[0. 0. 0. 0. 0. 0. 0. 0. 0.]
1742667053330954614,1742667053,310858151,imu_link,-0.015869140625,0.09649658203125,0.03466796875,0.99462890625,[0. 0. 0. 0. 0. 0. 0. 0. 0.],-0.009765625,0.00390625,0.103515625,[0. 0. 0. 0. 0. 0. 0. 0. 0.],-2.296875,-0.15234375,9.58203125,[0. 0. 0. 0. 0. 0. 0. 0. 0.]
1742667053335727095,1742667053,333581392,imu_link,-0.015869140625,0.09649658203125,0.03466796875,0.99462890625,[0. 0. 0. 0. 0. 0. 0. 0. 0.],-0.009765625,0.00390625,0.103515625,[0. 0. 0. 0. 0. 0. 0. 0. 0.],-2.296875,-0.19140625,9.5,[0. 0. 0. 0. 0. 0. 0. 0. 0.]
1742667053362471392,1742667053,350843410,imu_link,-0.015869140625,0.09649658203125,0.03466796875,0.99462890625,[0. 0. 0. 0. 0. 0. 0. 0. 0.],-0.00390625,0.0,0.09375,[0. 0. 0. 0. 0. 0. 0. 0. 0.],-2.10546875,-0.421875,9.61328125,[0. 0. 0. 0. 0. 0. 0. 0. 0.]
1742667053387498929,1742667053,370787355,imu_link,-0.0159912109375,0.09619140625,0.03692626953125,0.99456787109375,[0. 0. 0. 0. 0. 0. 0. 0. 0.],-0.00390625,0.0,0.09375,[0. 0. 0. 0. 0. 0. 0. 0. 0.],-1.76171875,-0.57421875,9.61328125,[0. 0. 0. 0. 0. 0. 0. 0. 0.]
1742667053394121281,1742667053,390717355,imu_link,-0.0159912109375,0.09619140625,0.03692626953125,0.99456787109375,[0. 0. 0. 0. 0. 0. 0. 0. 0.],-0.00390625,0.0,0.09375,[0. 0. 0. 0. 0. 0. 0. 0. 0.],-1.76171875,-0.57421875,9.61328125,[0. 0. 0. 0. 0. 0. 0. 0. 0.]
1742667053430631466,1742667053,410915910,imu_link,-0.01519775390625,0.0982666015625,0.04083251953125,0.99420166015625,[0. 0. 0. 0. 0. 0. 0. 0. 0.],-0.01171875,0.00390625,0.15625,[0. 0. 0. 0. 0. 0. 0. 0. 0.],-1.609375,-0.69140625,9.54296875,[0. 0. 0. 0. 0. 0. 0. 0. 0.]
1742667053435895707,1742667053,433186058,imu_link,-0.01519775390625,0.0982666015625,0.04083251953125,0.99420166015625,[0. 0. 0. 0. 0. 0. 0. 0. 0.],-0.01171875,0.00390625,0.15625,[0. 0. 0. 0. 0. 0. 0. 0. 0.],-1.609375,-0.69140625,9.54296875,[0. 0. 0. 0. 0. 0. 0. 0. 0.]
1742667053462266206,1742667053,450823614,imu_link,-0.01519775390625,0.0982666015625,0.04083251953125,0.99420166015625,[0. 0. 0. 0. 0. 0. 0. 0. 0.],-0.01171875,0.00390625,0.185546875,[0. 0. 0. 0. 0. 0. 0. 0. 0.],-1.45703125,-0.69140625,9.6875,[0. 0. 0. 0. 0. 0. 0. 0. 0.]
1742667053484433151,1742667053,470752095,imu_link,-0.01409912109375,0.10137939453125,0.04547119140625,0.99371337890625,[0. 0. 0. 0. 0. 0. 0. 0. 0.],-0.01171875,0.00390625,0.185546875,[0. 0. 0. 0. 0. 0. 0. 0. 0.],-1.37890625,-0.57421875,9.578125,[0. 0. 0. 0. 0. 0. 0. 0. 0.]
1742667053494222262,1742667053,490760299,imu_link,-0.01409912109375,0.10137939453125,0.04547119140625,0.99371337890625,[0. 0. 0. 0. 0. 0. 0. 0. 0.],-0.01171875,0.00390625,0.185546875,[0. 0. 0. 0. 0. 0. 0. 0. 0.],-1.37890625,-0.57421875,9.578125,[0. 0. 0. 0. 0. 0. 0. 0. 0.]
1742667053531252188,1742667053,510829558,imu_link,-0.01385498046875,0.10162353515625,0.0504150390625,0.99346923828125,[0. 0. 0. 0. 0. 0. 0. 0. 0.],-0.013671875,0.00390625,0.19921875,[0. 0. 0. 0. 0. 0. 0. 0. 0.],-1.5703125,-0.421875,9.65234375,[0. 0. 0. 0. 0. 0. 0. 0. 0.]
1742667053535961503,1742667053,533806503,imu_link,-0.01385498046875,0.10162353515625,0.0504150390625,0.99346923828125,[0. 0. 0. 0. 0. 0. 0. 0. 0.],-0.013671875,0.00390625,0.19921875,[0. 0. 0. 0. 0. 0. 0. 0. 0.],-1.5703125,-0.421875,9.65234375,[0. 0. 0. 0. 0. 0. 0. 0. 0.]
1742667053562471003,1742667053,551021003,imu_link,-0.01385498046875,0.10162353515625,0.0504150390625,0.99346923828125,[0. 0. 0. 0. 0. 0. 0. 0. 0.],-0.0078125,0.009765625,0.228515625,[0. 0. 0. 0. 0. 0. 0. 0. 0.],-1.80078125,-0.34375,9.578125,[0. 0. 0. 0. 0. 0. 0. 0. 0.]
1742667053584764632,1742667053,570756725,imu_link,-0.01361083984375,0.1019287109375,0.05596923828125,0.99310302734375,[0. 0. 0. 0. 0. 0. 0. 0. 0.],-0.0078125,0.009765625,0.228515625,[0. 0. 0. 0. 0. 0. 0. 0. 0.],-2.03125,-0.15234375,9.578125,[0. 0. 0. 0. 0. 0. 0. 0. 0.]
1742667053594167762,1742667053,590773206,imu_link,-0.01361083984375,0.1019287109375,0.05596923828125,0.99310302734375,[0. 0. 0. 0. 0. 0. 0. 0. 0.],-0.0078125,0.009765625,0.228515625,[0. 0. 0. 0. 0. 0. 0. 0. 0.],-2.03125,-0.15234375,9.578125,[0. 0. 0. 0. 0. 0. 0. 0. 0.]
1742667053631387169,1742667053,610831355,imu_link,-0.013427734375,0.10205078125,0.0611572265625,0.9927978515625,[0. 0. 0. 0. 0. 0. 0. 0. 0.],-0.01171875,0.0,0.20703125,[0. 0. 0. 0. 0. 0. 0. 0. 0.],-2.10546875,-0.26953125,9.46484375,[0. 0. 0. 0. 0. 0. 0. 0. 0.]
1742667053642035892,1742667053,638679706,imu_link,-0.013427734375,0.10205078125,0.0611572265625,0.9927978515625,[0. 0. 0. 0. 0. 0. 0. 0. 0.],-0.01171875,0.0,0.20703125,[0. 0. 0. 0. 0. 0. 0. 0. 0.],-2.26171875,-0.0390625,9.609375,[0. 0. 0. 0. 0. 0. 0. 0. 0.]
1742667053658760206,1742667053,650770003,imu_link,-0.013427734375,0.10205078125,0.0611572265625,0.9927978515625,[0. 0. 0. 0. 0. 0. 0. 0. 0.],-0.013671875,0.0078125,0.197265625,[0. 0. 0. 0. 0. 0. 0. 0. 0.],-2.26171875,-0.0390625,9.609375,[0. 0. 0. 0. 0. 0. 0. 0. 0.]
1742667053685367003,1742667053,670782484,imu_link,-0.0133056640625,0.102294921875,0.066162109375,0.99249267578125,[0. 0. 0. 0. 0. 0. 0. 0. 0.],-0.013671875,0.0078125,0.197265625,[0. 0. 0. 0. 0. 0. 0. 0. 0.],-2.375,-0.078125,9.5390625,[0. 0. 0. 0. 0. 0. 0. 0. 0.]
1742667053694177632,1742667053,690767317,imu_link,-0.0133056640625,0.102294921875,0.066162109375,0.99249267578125,[0. 0. 0. 0. 0. 0. 0. 0. 0.],-0.013671875,0.0078125,0.197265625,[0. 0. 0. 0. 0. 0. 0. 0. 0.],-2.375,-0.078125,9.5390625,[0. 0. 0. 0. 0. 0. 0. 0. 0.]
1742667053735094577,1742667053,710812558,imu_link,-0.0130615234375,0.1025390625,0.070556640625,0.99212646484375,[0. 0. 0. 0. 0. 0. 0. 0. 0.],-0.009765625,0.005859375,0.171875,[0. 0. 0. 0. 0. 0. 0. 0. 0.],-2.26171875,-0.11328125,9.54296875,[0. 0. 0. 0. 0. 0. 0. 0. 0.]
1742667053740662317,1742667053,737308410,imu_link,-0.0130615234375,0.1025390625,0.070556640625,0.99212646484375,[0. 0. 0. 0. 0. 0. 0. 0. 0.],-0.009765625,0.005859375,0.171875,[0. 0. 0. 0. 0. 0. 0. 0. 0.],-1.953125,-0.26953125,9.5390625,[0. 0. 0. 0. 0. 0. 0. 0. 0.]
1742667053757657725,1742667053,750786780,imu_link,-0.0130615234375,0.1025390625,0.070556640625,0.99212646484375,[0. 0. 0. 0. 0. 0. 0. 0. 0.],-0.017578125,0.001953125,0.177734375,[0. 0. 0. 0. 0. 0. 0. 0. 0.],-1.953125,-0.26953125,9.5390625,[0. 0. 0. 0. 0. 0. 0. 0. 0.]
1742667053784609688,1742667053,770810206,imu_link,-0.0128173828125,0.102783203125,0.07501220703125,0.99176025390625,[0. 0. 0. 0. 0. 0. 0. 0. 0.],-0.017578125,0.001953125,0.177734375,[0. 0. 0. 0. 0. 0. 0. 0. 0.],-1.953125,-0.3828125,9.61328125,[0. 0. 0. 0. 0. 0. 0. 0. 0.]
1742667053802182799,1742667053,791055706,imu_link,-0.0128173828125,0.102783203125,0.07501220703125,0.99176025390625,[0. 0. 0. 0. 0. 0. 0. 0. 0.],-0.0078125,0.005859375,0.189453125,[0. 0. 0. 0. 0. 0. 0. 0. 0.],-1.72265625,-0.4609375,9.58203125,[0. 0. 0. 0. 0. 0. 0. 0. 0.]
1742667053814180817,1742667053,810776632,imu_link,-0.0128173828125,0.102783203125,0.07501220703125,0.99176025390625,[0. 0. 0. 0. 0. 0. 0. 0. 0.],-0.0078125,0.005859375,0.189453125,[0. 0. 0. 0. 0. 0. 0. 0. 0.],-1.72265625,-0.4609375,9.58203125,[0. 0. 0. 0. 0. 0. 0. 0. 0.]
1742667053844681706,1742667053,830752854,imu_link,-0.01251220703125,0.10302734375,0.0797119140625,0.99139404296875,[0. 0. 0. 0. 0. 0. 0. 0. 0.],-0.0078125,0.005859375,0.189453125,[0. 0. 0. 0. 0. 0. 0. 0. 0.],-1.80078125,-0.3828125,9.578125,[0. 0. 0. 0. 0. 0. 0. 0. 0.]
1742667053861456762,1742667053,850742725,imu_link,-0.01251220703125,0.10302734375,0.0797119140625,0.99139404296875,[0. 0. 0. 0. 0. 0. 0. 0. 0.],-0.00390625,0.00390625,0.197265625,[0. 0. 0. 0. 0. 0. 0. 0. 0.],-1.83984375,-0.34375,9.609375,[0. 0. 0. 0. 0. 0. 0. 0. 0.]
1742667053883770836,1742667053,870789058,imu_link,-0.01220703125,0.103271484375,0.08453369140625,0.990966796875,[0. 0. 0. 0. 0. 0. 0. 0. 0.],-0.00390625,0.00390625,0.197265625,[0. 0. 0. 0. 0. 0. 0. 0. 0.],-1.83984375,-0.34375,9.609375,[0. 0. 0. 0. 0. 0. 0. 0. 0.]
1742667053901513410,1742667053,890756021,imu_link,-0.01220703125,0.103271484375,0.08453369140625,0.990966796875,[0. 0. 0. 0. 0. 0. 0. 0. 0.],-0.00390625,0.00390625,0.197265625,[0. 0. 0. 0. 0. 0. 0. 0. 0.],-1.83984375,-0.34375,9.54296875,[0. 0. 0. 0. 0. 0. 0. 0. 0.]
1742667053914265614,1742667053,910839003,imu_link,-0.01220703125,0.103271484375,0.08453369140625,0.990966796875,[0. 0. 0. 0. 0. 0. 0. 0. 0.],-0.005859375,0.00390625,0.201171875,[0. 0. 0. 0. 0. 0. 0. 0. 0.],-1.83984375,-0.34375,9.54296875,[0. 0. 0. 0. 0. 0. 0. 0. 0.]
1742667053944977410,1742667053,930759410,imu_link,-0.01190185546875,0.10345458984375,0.08953857421875,0.99053955078125,[0. 0. 0. 0. 0. 0. 0. 0. 0.],-0.005859375,0.00390625,0.201171875,[0. 0. 0. 0. 0. 0. 0. 0. 0.],-1.9140625,-0.26953125,9.61328125,[0. 0. 0. 0. 0. 0. 0. 0. 0.]
1742667053956261873,1742667053,954555854,imu_link,-0.01190185546875,0.10345458984375,0.08953857421875,0.99053955078125,[0. 0. 0. 0. 0. 0. 0. 0. 0.],-0.01171875,0.005859375,0.201171875,[0. 0. 0. 0. 0. 0. 0. 0. 0.],-1.953125,-0.26953125,9.61328125,[0. 0. 0. 0. 0. 0. 0. 0. 0.]
1742667053987228910,1742667053,970757317,imu_link,-0.01165771484375,0.10369873046875,0.094482421875,0.99005126953125,[0. 0. 0. 0. 0. 0. 0. 0. 0.],-0.01171875,0.005859375,0.201171875,[0. 0. 0. 0. 0. 0. 0. 0. 0.],-2.03125,-0.11328125,9.5390625,[0. 0. 0. 0. 0. 0. 0. 0. 0.]
1742667053994093484,1742667053,990716484,imu_link,-0.01165771484375,0.10369873046875,0.094482421875,0.99005126953125,[0. 0. 0. 0. 0. 0. 0. 0. 0.],-0.01171875,0.005859375,0.201171875,[0. 0. 0. 0. 0. 0. 0. 0. 0.],-2.03125,-0.11328125,9.5390625,[0. 0. 0. 0. 0. 0. 0. 0. 0.]
1742667054030686799,1742667054,10819410,imu_link,-0.011474609375,0.10394287109375,0.09918212890625,0.98956298828125,[0. 0. 0. 0. 0. 0. 0. 0. 0.],-0.015625,0.005859375,0.1875,[0. 0. 0. 0. 0. 0. 0. 0. 0.],-1.9921875,-0.19140625,9.50390625,[0. 0. 0. 0. 0. 0. 0. 0. 0.]
1742667054035864373,1742667054,33224743,imu_link,-0.011474609375,0.10394287109375,0.09918212890625,0.98956298828125,[0. 0. 0. 0. 0. 0. 0. 0. 0.],-0.015625,0.005859375,0.1875,[0. 0. 0. 0. 0. 0. 0. 0. 0.],-1.9921875,-0.19140625,9.50390625,[0. 0. 0. 0. 0. 0. 0. 0. 0.]
1742667054063008391,1742667054,50971669,imu_link,-0.011474609375,0.10394287109375,0.09918212890625,0.98956298828125,[0. 0. 0. 0. 0. 0. 0. 0. 0.],-0.01171875,0.00390625,0.18359375,[0. 0. 0. 0. 0. 0. 0. 0. 0.],-2.03125,-0.23046875,9.609375,[0. 0. 0. 0. 0. 0. 0. 0. 0.]
1742667054085160317,1742667054,70790206,imu_link,-0.0111083984375,0.10418701171875,0.103759765625,0.98907470703125,[0. 0. 0. 0. 0. 0. 0. 0. 0.],-0.01171875,0.00390625,0.18359375,[0. 0. 0. 0. 0. 0. 0. 0. 0.],-2.0703125,-0.23046875,9.61328125,[0. 0. 0. 0. 0. 0. 0. 0. 0.]
1742667054094197428,1742667054,90775595,imu_link,-0.0111083984375,0.10418701171875,0.103759765625,0.98907470703125,[0. 0. 0. 0. 0. 0. 0. 0. 0.],-0.01171875,0.00390625,0.18359375,[0. 0. 0. 0. 0. 0. 0. 0. 0.],-2.0703125,-0.23046875,9.61328125,[0. 0. 0. 0. 0. 0. 0. 0. 0.]
1742667054130512521,1742667054,110783391,imu_link,-0.0108642578125,0.10443115234375,0.10797119140625,0.98858642578125,[0. 0. 0. 0. 0. 0. 0. 0. 0.],-0.00390625,0.00390625,0.173828125,[0. 0. 0. 0. 0. 0. 0. 0. 0.],-2.0703125,-0.3046875,9.578125,[0. 0. 0. 0. 0. 0. 0. 0. 0.]
1742667054135223595,1742667054,133049984,imu_link,-0.0108642578125,0.10443115234375,0.10797119140625,0.98858642578125,[0. 0. 0. 0. 0. 0. 0. 0. 0.],-0.00390625,0.00390625,0.173828125,[0. 0. 0. 0. 0. 0. 0. 0. 0.],-2.0703125,-0.3046875,9.578125,[0. 0. 0. 0. 0. 0. 0. 0. 0.]
1742667054161490613,1742667054,150811039,imu_link,-0.0108642578125,0.10443115234375,0.10797119140625,0.98858642578125,[0. 0. 0. 0. 0. 0. 0. 0. 0.],-0.01171875,0.001953125,0.177734375,[0. 0. 0. 0. 0. 0. 0. 0. 0.],-1.953125,-0.34375,9.5390625,[0. 0. 0. 0. 0. 0. 0. 0. 0.]
1742667054184091743,1742667054,170749688,imu_link,-0.0120849609375,0.1038818359375,0.11224365234375,0.9881591796875,[0. 0. 0. 0. 0. 0. 0. 0. 0.],-0.01171875,0.001953125,0.177734375,[0. 0. 0. 0. 0. 0. 0. 0. 0.],-2.03125,-0.3046875,9.58203125,[0. 0. 0. 0. 0. 0. 0. 0. 0.]
1742667054194275558,1742667054,190827576,imu_link,-0.0120849609375,0.1038818359375,0.11224365234375,0.9881591796875,[0. 0. 0. 0. 0. 0. 0. 0. 0.],-0.01171875,0.001953125,0.177734375,[0. 0. 0. 0. 0. 0. 0. 0. 0.],-2.03125,-0.3046875,9.58203125,[0. 0. 0. 0. 0. 0. 0. 0. 0.]
1742667054230991354,1742667054,210815262,imu_link,-0.015625,0.1021728515625,0.1162109375,0.98785400390625,[0. 0. 0. 0. 0. 0. 0. 0. 0.],-0.009765625,0.005859375,0.17578125,[0. 0. 0. 0. 0. 0. 0. 0. 0.],-2.03125,-0.23046875,9.609375,[0. 0. 0. 0. 0. 0. 0. 0. 0.]
1742667054240028002,1742667054,236657558,imu_link,-0.015625,0.1021728515625,0.1162109375,0.98785400390625,[0. 0. 0. 0. 0. 0. 0. 0. 0.],-0.009765625,0.005859375,0.17578125,[0. 0. 0. 0. 0. 0. 0. 0. 0.],-1.9921875,-0.26953125,9.578125,[0. 0. 0. 0. 0. 0. 0. 0. 0.]
1742667054256561373,1742667054,250789280,imu_link,-0.015625,0.1021728515625,0.1162109375,0.98785400390625,[0. 0. 0. 0. 0. 0. 0. 0. 0.],-0.00390625,0.01171875,0.173828125,[0. 0. 0. 0. 0. 0. 0. 0. 0.],-1.9921875,-0.26953125,9.578125,[0. 0. 0. 0. 0. 0. 0. 0. 0.]
1742667054283483965,1742667054,270821725,imu_link,-0.01708984375,0.1015625,0.120361328125,0.98736572265625,[0. 0. 0. 0. 0. 0. 0. 0. 0.],-0.00390625,0.01171875,0.173828125,[0. 0. 0. 0. 0. 0. 0. 0. 0.],-1.953125,-0.26953125,9.5390625,[0. 0. 0. 0. 0. 0. 0. 0. 0.]
1742667054293682354,1742667054,290802447,imu_link,-0.01708984375,0.1015625,0.120361328125,0.98736572265625,[0. 0. 0. 0. 0. 0. 0. 0. 0.],-0.00390625,0.01171875,0.173828125,[0. 0. 0. 0. 0. 0. 0. 0. 0.],-1.953125,-0.26953125,9.5390625,[0. 0. 0. 0. 0. 0. 0. 0. 0.]
1742667054333510762,1742667054,310856262,imu_link,-0.017578125,0.10150146484375,0.1246337890625,0.98681640625,[0. 0. 0. 0. 0. 0. 0. 0. 0.],-0.0078125,0.005859375,0.177734375,[0. 0. 0. 0. 0. 0. 0. 0. 0.],-1.83984375,-0.34375,9.54296875,[0. 0. 0. 0. 0. 0. 0. 0. 0.]
1742667054338526224,1742667054,335412447,imu_link,-0.017578125,0.10150146484375,0.1246337890625,0.98681640625,[0. 0. 0. 0. 0. 0. 0. 0. 0.],-0.0078125,0.005859375,0.177734375,[0. 0. 0. 0. 0. 0. 0. 0. 0.],-1.9140625,-0.26953125,9.61328125,[0. 0. 0. 0. 0. 0. 0. 0. 0.]
1742667054356541706,1742667054,350758687,imu_link,-0.017578125,0.10150146484375,0.1246337890625,0.98681640625,[0. 0. 0. 0. 0. 0. 0. 0. 0.],-0.01171875,0.0078125,0.169921875,[0. 0. 0. 0. 0. 0. 0. 0. 0.],-1.9140625,-0.26953125,9.61328125,[0. 0. 0. 0. 0. 0. 0. 0. 0.]
1742667054384055354,1742667054,370916724,imu_link,-0.0179443359375,0.10150146484375,0.12890625,0.98626708984375,[0. 0. 0. 0. 0. 0. 0. 0. 0.],-0.01171875,0.0078125,0.169921875,[0. 0. 0. 0. 0. 0. 0. 0. 0.],-1.9921875,-0.19140625,9.54296875,[0. 0. 0. 0. 0. 0. 0. 0. 0.]
1742667054401447724,1742667054,390747632,imu_link,-0.0179443359375,0.10150146484375,0.12890625,0.98626708984375,[0. 0. 0. 0. 0. 0. 0. 0. 0.],-0.015625,0.005859375,0.162109375,[0. 0. 0. 0. 0. 0. 0. 0. 0.],-2.03125,-0.15234375,9.578125,[0. 0. 0. 0. 0. 0. 0. 0. 0.]
1742667054413667873,1742667054,410847854,imu_link,-0.0179443359375,0.10150146484375,0.12890625,0.98626708984375,[0. 0. 0. 0. 0. 0. 0. 0. 0.],-0.015625,0.005859375,0.162109375,[0. 0. 0. 0. 0. 0. 0. 0. 0.],-2.03125,-0.15234375,9.578125,[0. 0. 0. 0. 0. 0. 0. 0. 0.]
1742667054443915243,1742667054,430750336,imu_link,-0.0184326171875,0.10150146484375,0.13287353515625,0.98577880859375,[0. 0. 0. 0. 0. 0. 0. 0. 0.],-0.015625,0.005859375,0.162109375,[0. 0. 0. 0. 0. 0. 0. 0. 0.],-1.9921875,-0.15234375,9.5,[0. 0. 0. 0. 0. 0. 0. 0. 0.]
1742667054460785428,1742667054,450738373,imu_link,-0.0184326171875,0.10150146484375,0.13287353515625,0.98577880859375,[0. 0. 0. 0. 0. 0. 0. 0. 0.],-0.0078125,-0.001953125,0.1484375,[0. 0. 0. 0. 0. 0. 0. 0. 0.],-1.9921875,-0.19140625,9.609375,[0. 0. 0. 0. 0. 0. 0. 0. 0.]
1742667054483220891,1742667054,470790410,imu_link,-0.01873779296875,0.1014404296875,0.1365966796875,0.9852294921875,[0. 0. 0. 0. 0. 0. 0. 0. 0.],-0.0078125,-0.001953125,0.1484375,[0. 0. 0. 0. 0. 0. 0. 0. 0.],-1.9921875,-0.19140625,9.609375,[0. 0. 0. 0. 0. 0. 0. 0. 0.]
1742667054501567502,1742667054,490805836,imu_link,-0.01873779296875,0.1014404296875,0.1365966796875,0.9852294921875,[0. 0. 0. 0. 0. 0. 0. 0. 0.],-0.009765625,0.001953125,0.150390625,[0. 0. 0. 0. 0. 0. 0. 0. 0.],-1.9921875,-0.26953125,9.5390625,[0. 0. 0. 0. 0. 0. 0. 0. 0.]
1742667054513744595,1742667054,510776947,imu_link,-0.01873779296875,0.1014404296875,0.1365966796875,0.9852294921875,[0. 0. 0. 0. 0. 0. 0. 0. 0.],-0.009765625,0.001953125,0.150390625,[0. 0. 0. 0. 0. 0. 0. 0. 0.],-1.9921875,-0.26953125,9.5390625,[0. 0. 0. 0. 0. 0. 0. 0. 0.]
1742667054543625021,1742667054,530771539,imu_link,-0.01904296875,0.1014404296875,0.1402587890625,0.9847412109375,[0. 0. 0. 0. 0. 0. 0. 0. 0.],-0.009765625,0.001953125,0.150390625,[0. 0. 0. 0. 0. 0. 0. 0. 0.],-2.03125,-0.26953125,9.578125,[0. 0. 0. 0. 0. 0. 0. 0. 0.]
1742667054561605854,1742667054,550866891,imu_link,-0.01904296875,0.1014404296875,0.1402587890625,0.9847412109375,[0. 0. 0. 0. 0. 0. 0. 0. 0.],-0.01171875,0.005859375,0.14453125,[0. 0. 0. 0. 0. 0. 0. 0. 0.],-2.03125,-0.26953125,9.578125,[0. 0. 0. 0. 0. 0. 0. 0. 0.]
1742667054586297854,1742667054,570787650,imu_link,-0.01922607421875,0.10150146484375,0.143798828125,0.98419189453125,[0. 0. 0. 0. 0. 0. 0. 0. 0.],-0.01171875,0.005859375,0.14453125,[0. 0. 0. 0. 0. 0. 0. 0. 0.],-1.9921875,-0.23046875,9.54296875,[0. 0. 0. 0. 0. 0. 0. 0. 0.]
1742667054593457835,1742667054,590727947,imu_link,-0.01922607421875,0.10150146484375,0.143798828125,0.98419189453125,[0. 0. 0. 0. 0. 0. 0. 0. 0.],-0.01171875,0.005859375,0.14453125,[0. 0. 0. 0. 0. 0. 0. 0. 0.],-1.9921875,-0.23046875,9.54296875,[0. 0. 0. 0. 0. 0. 0. 0. 0.]
1742667054630594872,1742667054,610770132,imu_link,-0.01934814453125,0.10150146484375,0.147216796875,0.98370361328125,[0. 0. 0. 0. 0. 0. 0. 0. 0.],0.00390625,0.00390625,0.140625,[0. 0. 0. 0. 0. 0. 0. 0. 0.],-1.9921875,-0.26953125,9.5390625,[0. 0. 0. 0. 0. 0. 0. 0. 0.]
1742667054634980280,1742667054,633236706,imu_link,-0.01934814453125,0.10150146484375,0.147216796875,0.98370361328125,[0. 0. 0. 0. 0. 0. 0. 0. 0.],0.00390625,0.00390625,0.140625,[0. 0. 0. 0. 0. 0. 0. 0. 0.],-1.9921875,-0.26953125,9.5390625,[0. 0. 0. 0. 0. 0. 0. 0. 0.]
1742667054660826761,1742667054,650771354,imu_link,-0.01934814453125,0.10150146484375,0.147216796875,0.98370361328125,[0. 0. 0. 0. 0. 0. 0. 0. 0.],0.001953125,0.001953125,0.13671875,[0. 0. 0. 0. 0. 0. 0. 0. 0.],-1.9140625,-0.3046875,9.54296875,[0. 0. 0. 0. 0. 0. 0. 0. 0.]
1742667054685995372,1742667054,670807372,imu_link,-0.01947021484375,0.1015625,0.15057373046875,0.983154296875,[0. 0. 0. 0. 0. 0. 0. 0. 0.],0.001953125,0.001953125,0.13671875,[0. 0. 0. 0. 0. 0. 0. 0. 0.],-1.953125,-0.23046875,9.58203125,[0. 0. 0. 0. 0. 0. 0. 0. 0.]
1742667054693239909,1742667054,690829317,imu_link,-0.01947021484375,0.1015625,0.15057373046875,0.983154296875,[0. 0. 0. 0. 0. 0. 0. 0. 0.],0.001953125,0.001953125,0.13671875,[0. 0. 0. 0. 0. 0. 0. 0. 0.],-1.953125,-0.23046875,9.58203125,[0. 0. 0. 0. 0. 0. 0. 0. 0.]
1742667054727264521,1742667054,710837576,imu_link,-0.01971435546875,0.10162353515625,0.15380859375,0.982666015625,[0. 0. 0. 0. 0. 0. 0. 0. 0.],-0.0078125,0.001953125,0.126953125,[0. 0. 0. 0. 0. 0. 0. 0. 0.],-1.87890625,-0.26953125,9.54296875,[0. 0. 0. 0. 0. 0. 0. 0. 0.]
1742667054733507446,1742667054,731082835,imu_link,-0.01971435546875,0.10162353515625,0.15380859375,0.982666015625,[0. 0. 0. 0. 0. 0. 0. 0. 0.],-0.0078125,0.001953125,0.126953125,[0. 0. 0. 0. 0. 0. 0. 0. 0.],-1.87890625,-0.26953125,9.54296875,[0. 0. 0. 0. 0. 0. 0. 0. 0.]
1742667054761274984,1742667054,750846650,imu_link,-0.01971435546875,0.10162353515625,0.15380859375,0.982666015625,[0. 0. 0. 0. 0. 0. 0. 0. 0.],-0.015625,0.0,0.119140625,[0. 0. 0. 0. 0. 0. 0. 0. 0.],-1.953125,-0.15234375,9.61328125,[0. 0. 0. 0. 0. 0. 0. 0. 0.]
1742667054784689558,1742667054,770842687,imu_link,-0.01995849609375,0.1015625,0.15673828125,0.982177734375,[0. 0. 0. 0. 0. 0. 0. 0. 0.],-0.015625,0.0,0.119140625,[0. 0. 0. 0. 0. 0. 0. 0. 0.],-2.03125,-0.19140625,9.54296875,[0. 0. 0. 0. 0. 0. 0. 0. 0.]
1742667054793292835,1742667054,790769632,imu_link,-0.01995849609375,0.1015625,0.15673828125,0.982177734375,[0. 0. 0. 0. 0. 0. 0. 0. 0.],-0.015625,0.0,0.119140625,[0. 0. 0. 0. 0. 0. 0. 0. 0.],-2.03125,-0.19140625,9.54296875,[0. 0. 0. 0. 0. 0. 0. 0. 0.]
1742667054827784946,1742667054,810885372,imu_link,-0.02032470703125,0.10150146484375,0.15936279296875,0.98175048828125,[0. 0. 0. 0. 0. 0. 0. 0. 0.],-0.013671875,0.00390625,0.10546875,[0. 0. 0. 0. 0. 0. 0. 0. 0.],-2.14453125,-0.078125,9.65234375,[0. 0. 0. 0. 0. 0. 0. 0. 0.]
1742667054837396409,1742667054,830773891,imu_link,-0.02032470703125,0.10150146484375,0.15936279296875,0.98175048828125,[0. 0. 0. 0. 0. 0. 0. 0. 0.],-0.013671875,0.00390625,0.10546875,[0. 0. 0. 0. 0. 0. 0. 0. 0.],-2.14453125,-0.078125,9.65234375,[0. 0. 0. 0. 0. 0. 0. 0. 0.]
1742667054857770706,1742667054,850852132,imu_link,-0.02032470703125,0.10150146484375,0.15936279296875,0.98175048828125,[0. 0. 0. 0. 0. 0. 0. 0. 0.],-0.00390625,0.001953125,0.111328125,[0. 0. 0. 0. 0. 0. 0. 0. 0.],-2.03125,-0.34375,9.5,[0. 0. 0. 0. 0. 0. 0. 0. 0.]
1742667054884791039,1742667054,871035132,imu_link,-0.02056884765625,0.1014404296875,0.16204833984375,0.9813232421875,[0. 0. 0. 0. 0. 0. 0. 0. 0.],-0.00390625,0.001953125,0.111328125,[0. 0. 0. 0. 0. 0. 0. 0. 0.],-1.9921875,-0.3828125,9.65234375,[0. 0. 0. 0. 0. 0. 0. 0. 0.]
1742667054892961687,1742667054,890770224,imu_link,-0.02056884765625,0.1014404296875,0.16204833984375,0.9813232421875,[0. 0. 0. 0. 0. 0. 0. 0. 0.],-0.00390625,0.001953125,0.111328125,[0. 0. 0. 0. 0. 0. 0. 0. 0.],-1.9921875,-0.3828125,9.65234375,[0. 0. 0. 0. 0. 0. 0. 0. 0.]
1742667054932392798,1742667054,910841224,imu_link,-0.0208740234375,0.1014404296875,0.16461181640625,0.98089599609375,[0. 0. 0. 0. 0. 0. 0. 0. 0.],-0.00390625,0.00390625,0.10546875,[0. 0. 0. 0. 0. 0. 0. 0. 0.],-2.0703125,-0.34375,9.54296875,[0. 0. 0. 0. 0. 0. 0. 0. 0.]
1742667054937262539,1742667054,934210428,imu_link,-0.0208740234375,0.1014404296875,0.16461181640625,0.98089599609375,[0. 0. 0. 0. 0. 0. 0. 0. 0.],-0.00390625,0.00390625,0.10546875,[0. 0. 0. 0. 0. 0. 0. 0. 0.],-2.03125,-0.34375,9.578125,[0. 0. 0. 0. 0. 0. 0. 0. 0.]
1742667054957142928,1742667054,950806372,imu_link,-0.0208740234375,0.1014404296875,0.16461181640625,0.98089599609375,[0. 0. 0. 0. 0. 0. 0. 0. 0.],-0.0078125,0.001953125,0.11328125,[0. 0. 0. 0. 0. 0. 0. 0. 0.],-2.03125,-0.34375,9.578125,[0. 0. 0. 0. 0. 0. 0. 0. 0.]
1742667054983669169,1742667054,970800113,imu_link,-0.02130126953125,0.1014404296875,0.16729736328125,0.98046875,[0. 0. 0. 0. 0. 0. 0. 0. 0.],-0.0078125,0.001953125,0.11328125,[0. 0. 0. 0. 0. 0. 0. 0. 0.],-1.9921875,-0.26953125,9.5390625,[0. 0. 0. 0. 0. 0. 0. 0. 0.]
1742667055002112983,1742667054,990803706,imu_link,-0.02130126953125,0.1014404296875,0.16729736328125,0.98046875,[0. 0. 0. 0. 0. 0. 0. 0. 0.],-0.01171875,0.001953125,0.091796875,[0. 0. 0. 0. 0. 0. 0. 0. 0.],-2.0703125,-0.15234375,9.58203125,[0. 0. 0. 0. 0. 0. 0. 0. 0.]
1742667055013134650,1742667055,11216872,imu_link,-0.02130126953125,0.1014404296875,0.16729736328125,0.98046875,[0. 0. 0. 0. 0. 0. 0. 0. 0.],-0.01171875,0.001953125,0.091796875,[0. 0. 0. 0. 0. 0. 0. 0. 0.],-2.0703125,-0.15234375,9.58203125,[0. 0. 0. 0. 0. 0. 0. 0. 0.]
1742667055033036780,1742667055,30780206,imu_link,-0.021728515625,0.10137939453125,0.169677734375,0.98004150390625,[0. 0. 0. 0. 0. 0. 0. 0. 0.],-0.01171875,0.001953125,0.091796875,[0. 0. 0. 0. 0. 0. 0. 0. 0.],-1.87890625,-0.3046875,9.578125,[0. 0. 0. 0. 0. 0. 0. 0. 0.]
1742667055062176798,1742667055,50998724,imu_link,-0.021728515625,0.10137939453125,0.169677734375,0.98004150390625,[0. 0. 0. 0. 0. 0. 0. 0. 0.],-0.005859375,0.00390625,0.10546875,[0. 0. 0. 0. 0. 0. 0. 0. 0.],-1.87890625,-0.3046875,9.578125,[0. 0. 0. 0. 0. 0. 0. 0. 0.]
1742667055083176168,1742667055,70778317,imu_link,-0.02215576171875,0.1014404296875,0.172119140625,0.9796142578125,[0. 0. 0. 0. 0. 0. 0. 0. 0.],-0.005859375,0.00390625,0.10546875,[0. 0. 0. 0. 0. 0. 0. 0. 0.],-1.87890625,-0.3046875,9.578125,[0. 0. 0. 0. 0. 0. 0. 0. 0.]
1742667055101986428,1742667055,90805502,imu_link,-0.02215576171875,0.1014404296875,0.172119140625,0.9796142578125,[0. 0. 0. 0. 0. 0. 0. 0. 0.],-0.005859375,0.00390625,0.087890625,[0. 0. 0. 0. 0. 0. 0. 0. 0.],-1.953125,-0.26953125,9.61328125,[0. 0. 0. 0. 0. 0. 0. 0. 0.]
1742667055112913817,1742667055,110765576,imu_link,-0.02215576171875,0.1014404296875,0.172119140625,0.9796142578125,[0. 0. 0. 0. 0. 0. 0. 0. 0.],-0.005859375,0.00390625,0.087890625,[0. 0. 0. 0. 0. 0. 0. 0. 0.],-1.953125,-0.26953125,9.61328125,[0. 0. 0. 0. 0. 0. 0. 0. 0.]
1742667055144091483,1742667055,130868206,imu_link,-0.0225830078125,0.1014404296875,0.17431640625,0.97918701171875,[0. 0. 0. 0. 0. 0. 0. 0. 0.],-0.005859375,0.00390625,0.087890625,[0. 0. 0. 0. 0. 0. 0. 0. 0.],-2.03125,-0.26953125,9.61328125,[0. 0. 0. 0. 0. 0. 0. 0. 0.]
1742667055158105243,1742667055,154518483,imu_link,-0.0225830078125,0.1014404296875,0.17431640625,0.97918701171875,[0. 0. 0. 0. 0. 0. 0. 0. 0.],-0.01171875,0.005859375,0.08984375,[0. 0. 0. 0. 0. 0. 0. 0. 0.],-2.0703125,-0.26953125,9.54296875,[0. 0. 0. 0. 0. 0. 0. 0. 0.]
1742667055187100891,1742667055,170776483,imu_link,-0.0230712890625,0.1014404296875,0.17645263671875,0.97882080078125,[0. 0. 0. 0. 0. 0. 0. 0. 0.],-0.01171875,0.005859375,0.08984375,[0. 0. 0. 0. 0. 0. 0. 0. 0.],-2.14453125,-0.23046875,9.54296875,[0. 0. 0. 0. 0. 0. 0. 0. 0.]
1742667055193161576,1742667055,191275057,imu_link,-0.0230712890625,0.1014404296875,0.17645263671875,0.97882080078125,[0. 0. 0. 0. 0. 0. 0. 0. 0.],-0.01171875,0.005859375,0.08984375,[0. 0. 0. 0. 0. 0. 0. 0. 0.],-2.14453125,-0.23046875,9.54296875,[0. 0. 0. 0. 0. 0. 0. 0. 0.]
1742667055227464539,1742667055,210788668,imu_link,-0.0235595703125,0.10137939453125,0.178466796875,0.97845458984375,[0. 0. 0. 0. 0. 0. 0. 0. 0.],-0.01171875,0.001953125,0.083984375,[0. 0. 0. 0. 0. 0. 0. 0. 0.],-2.10546875,-0.34375,9.54296875,[0. 0. 0. 0. 0. 0. 0. 0. 0.]
1742667055232891668,1742667055,231065391,imu_link,-0.0235595703125,0.10137939453125,0.178466796875,0.97845458984375,[0. 0. 0. 0. 0. 0. 0. 0. 0.],-0.01171875,0.001953125,0.083984375,[0. 0. 0. 0. 0. 0. 0. 0. 0.],-2.10546875,-0.34375,9.54296875,[0. 0. 0. 0. 0. 0. 0. 0. 0.]
1742667055261835761,1742667055,250828761,imu_link,-0.0235595703125,0.10137939453125,0.178466796875,0.97845458984375,[0. 0. 0. 0. 0. 0. 0. 0. 0.],-0.00390625,0.005859375,0.083984375,[0. 0. 0. 0. 0. 0. 0. 0. 0.],-2.03125,-0.3046875,9.6484375,[0. 0. 0. 0. 0. 0. 0. 0. 0.]
1742667055289372298,1742667055,270867224,imu_link,-0.02392578125,0.10137939453125,0.180419921875,0.97802734375,[0. 0. 0. 0. 0. 0. 0. 0. 0.],-0.00390625,0.005859375,0.083984375,[0. 0. 0. 0. 0. 0. 0. 0. 0.],-1.9921875,-0.3046875,9.58203125,[0. 0. 0. 0. 0. 0. 0. 0. 0.]
1742667055298071317,1742667055,292344446,imu_link,-0.02392578125,0.10137939453125,0.180419921875,0.97802734375,[0. 0. 0. 0. 0. 0. 0. 0. 0.],-0.00390625,0.005859375,0.083984375,[0. 0. 0. 0. 0. 0. 0. 0. 0.],-1.9921875,-0.3046875,9.58203125,[0. 0. 0. 0. 0. 0. 0. 0. 0.]
1742667055327091483,1742667055,310872317,imu_link,-0.02435302734375,0.101318359375,0.18255615234375,0.9776611328125,[0. 0. 0. 0. 0. 0. 0. 0. 0.],-0.00390625,0.001953125,0.083984375,[0. 0. 0. 0. 0. 0. 0. 0. 0.],-1.9140625,-0.34375,9.5,[0. 0. 0. 0. 0. 0. 0. 0. 0.]
1742667055332568724,1742667055,330769613,imu_link,-0.02435302734375,0.101318359375,0.18255615234375,0.9776611328125,[0. 0. 0. 0. 0. 0. 0. 0. 0.],-0.00390625,0.001953125,0.083984375,[0. 0. 0. 0. 0. 0. 0. 0. 0.],-1.9140625,-0.34375,9.5,[0. 0. 0. 0. 0. 0. 0. 0. 0.]
1742667055361487391,1742667055,350878150,imu_link,-0.02435302734375,0.101318359375,0.18255615234375,0.9776611328125,[0. 0. 0. 0. 0. 0. 0. 0. 0.],-0.001953125,0.001953125,0.0859375,[0. 0. 0. 0. 0. 0. 0. 0. 0.],-1.953125,-0.3046875,9.58203125,[0. 0. 0. 0. 0. 0. 0. 0. 0.]
1742667055384249724,1742667055,370900835,imu_link,-0.0247802734375,0.101318359375,0.1845703125,0.977294921875,[0. 0. 0. 0. 0. 0. 0. 0. 0.],-0.001953125,0.001953125,0.0859375,[0. 0. 0. 0. 0. 0. 0. 0. 0.],-2.03125,-0.3046875,9.58203125,[0. 0. 0. 0. 0. 0. 0. 0. 0.]
1742667055392526872,1742667055,390764613,imu_link,-0.0247802734375,0.101318359375,0.1845703125,0.977294921875,[0. 0. 0. 0. 0. 0. 0. 0. 0.],-0.001953125,0.001953125,0.0859375,[0. 0. 0. 0. 0. 0. 0. 0. 0.],-2.03125,-0.3046875,9.58203125,[0. 0. 0. 0. 0. 0. 0. 0. 0.]
1742667055425325391,1742667055,410800279,imu_link,-0.025146484375,0.10125732421875,0.1866455078125,0.97686767578125,[0. 0. 0. 0. 0. 0. 0. 0. 0.],-0.001953125,-0.001953125,0.083984375,[0. 0. 0. 0. 0. 0. 0. 0. 0.],-2.03125,-0.3046875,9.58203125,[0. 0. 0. 0. 0. 0. 0. 0. 0.]
1742667055432532316,1742667055,430750835,imu_link,-0.025146484375,0.10125732421875,0.1866455078125,0.97686767578125,[0. 0. 0. 0. 0. 0. 0. 0. 0.],-0.001953125,-0.001953125,0.083984375,[0. 0. 0. 0. 0. 0. 0. 0. 0.],-2.03125,-0.3046875,9.58203125,[0. 0. 0. 0. 0. 0. 0. 0. 0.]
1742667055458003168,1742667055,450807872,imu_link,-0.025146484375,0.10125732421875,0.1866455078125,0.97686767578125,[0. 0. 0. 0. 0. 0. 0. 0. 0.],-0.00390625,-0.001953125,0.087890625,[0. 0. 0. 0. 0. 0. 0. 0. 0.],-1.9921875,-0.3046875,9.58203125,[0. 0. 0. 0. 0. 0. 0. 0. 0.]
1742667055483784965,1742667055,470758520,imu_link,-0.02557373046875,0.1011962890625,0.188720703125,0.9764404296875,[0. 0. 0. 0. 0. 0. 0. 0. 0.],-0.00390625,-0.001953125,0.087890625,[0. 0. 0. 0. 0. 0. 0. 0. 0.],-2.03125,-0.3046875,9.58203125,[0. 0. 0. 0. 0. 0. 0. 0. 0.]
1742667055492688205,1742667055,490775631,imu_link,-0.02557373046875,0.1011962890625,0.188720703125,0.9764404296875,[0. 0. 0. 0. 0. 0. 0. 0. 0.],-0.00390625,-0.001953125,0.087890625,[0. 0. 0. 0. 0. 0. 0. 0. 0.],-2.03125,-0.3046875,9.58203125,[0. 0. 0. 0. 0. 0. 0. 0. 0.]
1742667055512983335,1742667055,510847076,imu_link,-0.02557373046875,0.1011962890625,0.188720703125,0.9764404296875,[0. 0. 0. 0. 0. 0. 0. 0. 0.],-0.0078125,0.00390625,0.078125,[0. 0. 0. 0. 0. 0. 0. 0. 0.],-2.03125,-0.3046875,9.58203125,[0. 0. 0. 0. 0. 0. 0. 0. 0.]
1742667055537812279,1742667055,530785872,imu_link,-0.02606201171875,0.10113525390625,0.19061279296875,0.97607421875,[0. 0. 0. 0. 0. 0. 0. 0. 0.],-0.0078125,0.00390625,0.078125,[0. 0. 0. 0. 0. 0. 0. 0. 0.],-2.0703125,-0.3046875,9.578125,[0. 0. 0. 0. 0. 0. 0. 0. 0.]
1742667055557361409,1742667055,550979483,imu_link,-0.02606201171875,0.10113525390625,0.19061279296875,0.97607421875,[0. 0. 0. 0. 0. 0. 0. 0. 0.],-0.005859375,0.005859375,0.080078125,[0. 0. 0. 0. 0. 0. 0. 0. 0.],-2.0703125,-0.3046875,9.578125,[0. 0. 0. 0. 0. 0. 0. 0. 0.]
1742667055583096650,1742667055,570872835,imu_link,-0.0264892578125,0.10113525390625,0.1925048828125,0.9757080078125,[0. 0. 0. 0. 0. 0. 0. 0. 0.],-0.005859375,0.005859375,0.080078125,[0. 0. 0. 0. 0. 0. 0. 0. 0.],-1.9921875,-0.26953125,9.578125,[0. 0. 0. 0. 0. 0. 0. 0. 0.]
1742667055601505594,1742667055,590843872,imu_link,-0.0264892578125,0.10113525390625,0.1925048828125,0.9757080078125,[0. 0. 0. 0. 0. 0. 0. 0. 0.],-0.0078125,0.001953125,0.0703125,[0. 0. 0. 0. 0. 0. 0. 0. 0.],-2.03125,-0.23046875,9.58203125,[0. 0. 0. 0. 0. 0. 0. 0. 0.]
1742667055612573779,1742667055,610771557,imu_link,-0.0264892578125,0.10113525390625,0.1925048828125,0.9757080078125,[0. 0. 0. 0. 0. 0. 0. 0. 0.],-0.0078125,0.001953125,0.0703125,[0. 0. 0. 0. 0. 0. 0. 0. 0.],-2.03125,-0.23046875,9.58203125,[0. 0. 0. 0. 0. 0. 0. 0. 0.]
1742667055632579020,1742667055,630759205,imu_link,-0.02691650390625,0.10107421875,0.1942138671875,0.975341796875,[0. 0. 0. 0. 0. 0. 0. 0. 0.],-0.0078125,0.001953125,0.0703125,[0. 0. 0. 0. 0. 0. 0. 0. 0.],-1.953125,-0.34375,9.5390625,[0. 0. 0. 0. 0. 0. 0. 0. 0.]
1742667055661529131,1742667055,650816576,imu_link,-0.02691650390625,0.10107421875,0.1942138671875,0.975341796875,[0. 0. 0. 0. 0. 0. 0. 0. 0.],-0.0078125,0.001953125,0.076171875,[0. 0. 0. 0. 0. 0. 0. 0. 0.],-1.953125,-0.34375,9.5390625,[0. 0. 0. 0. 0. 0. 0. 0. 0.]
1742667055682765539,1742667055,670882835,imu_link,-0.02734375,0.10101318359375,0.19598388671875,0.9749755859375,[0. 0. 0. 0. 0. 0. 0. 0. 0.],-0.0078125,0.001953125,0.076171875,[0. 0. 0. 0. 0. 0. 0. 0. 0.],-1.9921875,-0.3046875,9.6484375,[0. 0. 0. 0. 0. 0. 0. 0. 0.]
1742667055701445446,1742667055,690805890,imu_link,-0.02734375,0.10101318359375,0.19598388671875,0.9749755859375,[0. 0. 0. 0. 0. 0. 0. 0. 0.],-0.01171875,0.001953125,0.0703125,[0. 0. 0. 0. 0. 0. 0. 0. 0.],-2.0703125,-0.3046875,9.578125,[0. 0. 0. 0. 0. 0. 0. 0. 0.]
1742667055712574798,1742667055,710775742,imu_link,-0.02734375,0.10101318359375,0.19598388671875,0.9749755859375,[0. 0. 0. 0. 0. 0. 0. 0. 0.],-0.01171875,0.001953125,0.0703125,[0. 0. 0. 0. 0. 0. 0. 0. 0.],-2.0703125,-0.3046875,9.578125,[0. 0. 0. 0. 0. 0. 0. 0. 0.]
1742667055732884724,1742667055,730935594,imu_link,-0.02777099609375,0.10089111328125,0.1976318359375,0.97467041015625,[0. 0. 0. 0. 0. 0. 0. 0. 0.],-0.01171875,0.001953125,0.0703125,[0. 0. 0. 0. 0. 0. 0. 0. 0.],-2.0703125,-0.3046875,9.5390625,[0. 0. 0. 0. 0. 0. 0. 0. 0.]
1742667055762158594,1742667055,750836761,imu_link,-0.02777099609375,0.10089111328125,0.1976318359375,0.97467041015625,[0. 0. 0. 0. 0. 0. 0. 0. 0.],-0.0078125,0.001953125,0.0703125,[0. 0. 0. 0. 0. 0. 0. 0. 0.],-2.0703125,-0.3046875,9.5390625,[0. 0. 0. 0. 0. 0. 0. 0. 0.]
1742667055777282835,1742667055,773701446,imu_link,-0.02813720703125,0.100830078125,0.1993408203125,0.97430419921875,[0. 0. 0. 0. 0. 0. 0. 0. 0.],-0.0078125,0.001953125,0.0703125,[0. 0. 0. 0. 0. 0. 0. 0. 0.],-2.0703125,-0.3046875,9.5390625,[0. 0. 0. 0. 0. 0. 0. 0. 0.]
1742667055792789020,1742667055,790986761,imu_link,-0.02813720703125,0.100830078125,0.1993408203125,0.97430419921875,[0. 0. 0. 0. 0. 0. 0. 0. 0.],-0.0078125,0.001953125,0.0703125,[0. 0. 0. 0. 0. 0. 0. 0. 0.],-2.03125,-0.3046875,9.609375,[0. 0. 0. 0. 0. 0. 0. 0. 0.]
1742667055827022298,1742667055,810847724,imu_link,-0.0284423828125,0.1007080078125,0.200927734375,0.9739990234375,[0. 0. 0. 0. 0. 0. 0. 0. 0.],-0.00390625,0.0,0.06640625,[0. 0. 0. 0. 0. 0. 0. 0. 0.],-1.953125,-0.3828125,9.5390625,[0. 0. 0. 0. 0. 0. 0. 0. 0.]
1742667055832776353,1742667055,830769001,imu_link,-0.0284423828125,0.1007080078125,0.200927734375,0.9739990234375,[0. 0. 0. 0. 0. 0. 0. 0. 0.],-0.00390625,0.0,0.06640625,[0. 0. 0. 0. 0. 0. 0. 0. 0.],-1.953125,-0.3828125,9.5390625,[0. 0. 0. 0. 0. 0. 0. 0. 0.]
1742667055861424853,1742667055,850870353,imu_link,-0.0284423828125,0.1007080078125,0.200927734375,0.9739990234375,[0. 0. 0. 0. 0. 0. 0. 0. 0.],-0.001953125,0.001953125,0.0703125,[0. 0. 0. 0. 0. 0. 0. 0. 0.],-1.9140625,-0.34375,9.578125,[0. 0. 0. 0. 0. 0. 0. 0. 0.]
1742667055884362242,1742667055,871076446,imu_link,-0.02874755859375,0.1007080078125,0.20263671875,0.9736328125,[0. 0. 0. 0. 0. 0. 0. 0. 0.],-0.001953125,0.001953125,0.0703125,[0. 0. 0. 0. 0. 0. 0. 0. 0.],-1.9921875,-0.3046875,9.609375,[0. 0. 0. 0. 0. 0. 0. 0. 0.]
1742667055897439335,1742667055,890789761,imu_link,-0.02874755859375,0.1007080078125,0.20263671875,0.9736328125,[0. 0. 0. 0. 0. 0. 0. 0. 0.],-0.001953125,0.001953125,0.0703125,[0. 0. 0. 0. 0. 0. 0. 0. 0.],-1.9921875,-0.3046875,9.609375,[0. 0. 0. 0. 0. 0. 0. 0. 0.]
1742667055926686872,1742667055,910878075,imu_link,-0.029052734375,0.10064697265625,0.20440673828125,0.9732666015625,[0. 0. 0. 0. 0. 0. 0. 0. 0.],0.0,0.0,0.076171875,[0. 0. 0. 0. 0. 0. 0. 0. 0.],-1.953125,-0.421875,9.54296875,[0. 0. 0. 0. 0. 0. 0. 0. 0.]
1742667055932528594,1742667055,930763261,imu_link,-0.029052734375,0.10064697265625,0.20440673828125,0.9732666015625,[0. 0. 0. 0. 0. 0. 0. 0. 0.],0.0,0.0,0.076171875,[0. 0. 0. 0. 0. 0. 0. 0. 0.],-1.953125,-0.421875,9.54296875,[0. 0. 0. 0. 0. 0. 0. 0. 0.]
1742667055961491927,1742667055,950876224,imu_link,-0.029052734375,0.10064697265625,0.20440673828125,0.9732666015625,[0. 0. 0. 0. 0. 0. 0. 0. 0.],-0.00390625,-0.001953125,0.07421875,[0. 0. 0. 0. 0. 0. 0. 0. 0.],-1.9921875,-0.26953125,9.578125,[0. 0. 0. 0. 0. 0. 0. 0. 0.]
1742667055984103575,1742667055,970874575,imu_link,-0.02923583984375,0.1004638671875,0.20623779296875,0.972900390625,[0. 0. 0. 0. 0. 0. 0. 0. 0.],-0.00390625,-0.001953125,0.07421875,[0. 0. 0. 0. 0. 0. 0. 0. 0.],-2.10546875,-0.19140625,9.5390625,[0. 0. 0. 0. 0. 0. 0. 0. 0.]
1742667055997773538,1742667055,990786761,imu_link,-0.02923583984375,0.1004638671875,0.20623779296875,0.972900390625,[0. 0. 0. 0. 0. 0. 0. 0. 0.],-0.00390625,-0.001953125,0.07421875,[0. 0. 0. 0. 0. 0. 0. 0. 0.],-2.10546875,-0.19140625,9.5390625,[0. 0. 0. 0. 0. 0. 0. 0. 0.]
1742667056027490446,1742667056,10869223,imu_link,-0.02960205078125,0.10040283203125,0.20770263671875,0.97259521484375,[0. 0. 0. 0. 0. 0. 0. 0. 0.],-0.005859375,0.00390625,0.064453125,[0. 0. 0. 0. 0. 0. 0. 0. 0.],-2.10546875,-0.26953125,9.609375,[0. 0. 0. 0. 0. 0. 0. 0. 0.]
1742667056032487501,1742667056,30762723,imu_link,-0.02960205078125,0.10040283203125,0.20770263671875,0.97259521484375,[0. 0. 0. 0. 0. 0. 0. 0. 0.],-0.005859375,0.00390625,0.064453125,[0. 0. 0. 0. 0. 0. 0. 0. 0.],-2.10546875,-0.26953125,9.609375,[0. 0. 0. 0. 0. 0. 0. 0. 0.]
1742667056057646872,1742667056,50869835,imu_link,-0.02960205078125,0.10040283203125,0.20770263671875,0.97259521484375,[0. 0. 0. 0. 0. 0. 0. 0. 0.],-0.001953125,0.00390625,0.05859375,[0. 0. 0. 0. 0. 0. 0. 0. 0.],-2.10546875,-0.26953125,9.58203125,[0. 0. 0. 0. 0. 0. 0. 0. 0.]
1742667056085975798,1742667056,70867927,imu_link,-0.0299072265625,0.100341796875,0.2091064453125,0.9722900390625,[0. 0. 0. 0. 0. 0. 0. 0. 0.],-0.001953125,0.00390625,0.05859375,[0. 0. 0. 0. 0. 0. 0. 0. 0.],-2.0703125,-0.3046875,9.5390625,[0. 0. 0. 0. 0. 0. 0. 0. 0.]
1742667056100957260,1742667056,90766798,imu_link,-0.0299072265625,0.100341796875,0.2091064453125,0.9722900390625,[0. 0. 0. 0. 0. 0. 0. 0. 0.],-0.001953125,0.00390625,0.05859375,[0. 0. 0. 0. 0. 0. 0. 0. 0.],-2.0703125,-0.3046875,9.5390625,[0. 0. 0. 0. 0. 0. 0. 0. 0.]
1742667056123188872,1742667056,110771020,imu_link,-0.03021240234375,0.100341796875,0.21051025390625,0.97198486328125,[0. 0. 0. 0. 0. 0. 0. 0. 0.],-0.001953125,0.001953125,0.05859375,[0. 0. 0. 0. 0. 0. 0. 0. 0.],-1.9921875,-0.34375,9.5390625,[0. 0. 0. 0. 0. 0. 0. 0. 0.]
1742667056138219835,1742667056,130830742,imu_link,-0.03021240234375,0.100341796875,0.21051025390625,0.97198486328125,[0. 0. 0. 0. 0. 0. 0. 0. 0.],-0.001953125,0.001953125,0.05859375,[0. 0. 0. 0. 0. 0. 0. 0. 0.],-2.0703125,-0.34375,9.54296875,[0. 0. 0. 0. 0. 0. 0. 0. 0.]
1742667056157229705,1742667056,150831372,imu_link,-0.03021240234375,0.100341796875,0.21051025390625,0.97198486328125,[0. 0. 0. 0. 0. 0. 0. 0. 0.],0.0,0.00390625,0.05859375,[0. 0. 0. 0. 0. 0. 0. 0. 0.],-2.0703125,-0.34375,9.54296875,[0. 0. 0. 0. 0. 0. 0. 0. 0.]
1742667056176401057,1742667056,173009816,imu_link,-0.03057861328125,0.10028076171875,0.21185302734375,0.9716796875,[0. 0. 0. 0. 0. 0. 0. 0. 0.],0.0,0.00390625,0.05859375,[0. 0. 0. 0. 0. 0. 0. 0. 0.],-1.9921875,-0.3046875,9.54296875,[0. 0. 0. 0. 0. 0. 0. 0. 0.]
1742667056201807390,1742667056,191013538,imu_link,-0.03057861328125,0.10028076171875,0.21185302734375,0.9716796875,[0. 0. 0. 0. 0. 0. 0. 0. 0.],-0.005859375,0.0,0.052734375,[0. 0. 0. 0. 0. 0. 0. 0. 0.],-2.0703125,-0.23046875,9.578125,[0. 0. 0. 0. 0. 0. 0. 0. 0.]
1742667056222262964,1742667056,210803594,imu_link,-0.03094482421875,0.10028076171875,0.21319580078125,0.97137451171875,[0. 0. 0. 0. 0. 0. 0. 0. 0.],-0.005859375,0.0,0.052734375,[0. 0. 0. 0. 0. 0. 0. 0. 0.],-2.0703125,-0.23046875,9.578125,[0. 0. 0. 0. 0. 0. 0. 0. 0.]
1742667056233239001,1742667056,230789483,imu_link,-0.03094482421875,0.10028076171875,0.21319580078125,0.97137451171875,[0. 0. 0. 0. 0. 0. 0. 0. 0.],-0.005859375,0.0,0.052734375,[0. 0. 0. 0. 0. 0. 0. 0. 0.],-1.9921875,-0.34375,9.5390625,[0. 0. 0. 0. 0. 0. 0. 0. 0.]
1742667056260698649,1742667056,250804575,imu_link,-0.03094482421875,0.10028076171875,0.21319580078125,0.97137451171875,[0. 0. 0. 0. 0. 0. 0. 0. 0.],-0.005859375,0.0,0.056640625,[0. 0. 0. 0. 0. 0. 0. 0. 0.],-1.9921875,-0.34375,9.61328125,[0. 0. 0. 0. 0. 0. 0. 0. 0.]
1742667056275964390,1742667056,272451723,imu_link,-0.03118896484375,0.10028076171875,0.21453857421875,0.9710693359375,[0. 0. 0. 0. 0. 0. 0. 0. 0.],-0.005859375,0.0,0.056640625,[0. 0. 0. 0. 0. 0. 0. 0. 0.],-1.9921875,-0.34375,9.61328125,[0. 0. 0. 0. 0. 0. 0. 0. 0.]
1742667056300873131,1742667056,290830279,imu_link,-0.03118896484375,0.10028076171875,0.21453857421875,0.9710693359375,[0. 0. 0. 0. 0. 0. 0. 0. 0.],0.0,0.001953125,0.060546875,[0. 0. 0. 0. 0. 0. 0. 0. 0.],-2.03125,-0.3828125,9.578125,[0. 0. 0. 0. 0. 0. 0. 0. 0.]
1742667056324870797,1742667056,310820427,imu_link,-0.03131103515625,0.10028076171875,0.2159423828125,0.97076416015625,[0. 0. 0. 0. 0. 0. 0. 0. 0.],0.0,0.001953125,0.060546875,[0. 0. 0. 0. 0. 0. 0. 0. 0.],-2.03125,-0.3828125,9.578125,[0. 0. 0. 0. 0. 0. 0. 0. 0.]
1742667056332611520,1742667056,330764797,imu_link,-0.03131103515625,0.10028076171875,0.2159423828125,0.97076416015625,[0. 0. 0. 0. 0. 0. 0. 0. 0.],0.0,0.001953125,0.060546875,[0. 0. 0. 0. 0. 0. 0. 0. 0.],-2.03125,-0.3046875,9.54296875,[0. 0. 0. 0. 0. 0. 0. 0. 0.]
1742667056360724242,1742667056,350861168,imu_link,-0.03131103515625,0.10028076171875,0.2159423828125,0.97076416015625,[0. 0. 0. 0. 0. 0. 0. 0. 0.],0.00390625,0.001953125,0.056640625,[0. 0. 0. 0. 0. 0. 0. 0. 0.],-2.0703125,-0.26953125,9.58203125,[0. 0. 0. 0. 0. 0. 0. 0. 0.]
1742667056376086242,1742667056,372605668,imu_link,-0.031494140625,0.10040283203125,0.21728515625,0.97039794921875,[0. 0. 0. 0. 0. 0. 0. 0. 0.],0.00390625,0.001953125,0.056640625,[0. 0. 0. 0. 0. 0. 0. 0. 0.],-2.0703125,-0.26953125,9.58203125,[0. 0. 0. 0. 0. 0. 0. 0. 0.]
1742667056403111408,1742667056,391049501,imu_link,-0.031494140625,0.10040283203125,0.21728515625,0.97039794921875,[0. 0. 0. 0. 0. 0. 0. 0. 0.],0.001953125,0.0,0.056640625,[0. 0. 0. 0. 0. 0. 0. 0. 0.],-2.0703125,-0.26953125,9.58203125,[0. 0. 0. 0. 0. 0. 0. 0. 0.]
1742667056425163112,1742667056,411195908,imu_link,-0.03167724609375,0.10040283203125,0.2186279296875,0.9700927734375,[0. 0. 0. 0. 0. 0. 0. 0. 0.],0.001953125,0.0,0.056640625,[0. 0. 0. 0. 0. 0. 0. 0. 0.],-2.03125,-0.26953125,9.5390625,[0. 0. 0. 0. 0. 0. 0. 0. 0.]
1742667056433210797,1742667056,430788649,imu_link,-0.03167724609375,0.10040283203125,0.2186279296875,0.9700927734375,[0. 0. 0. 0. 0. 0. 0. 0. 0.],0.001953125,0.0,0.056640625,[0. 0. 0. 0. 0. 0. 0. 0. 0.],-2.03125,-0.26953125,9.5390625,[0. 0. 0. 0. 0. 0. 0. 0. 0.]
1742667056471164260,1742667056,450873427,imu_link,-0.0318603515625,0.100341796875,0.2198486328125,0.9698486328125,[0. 0. 0. 0. 0. 0. 0. 0. 0.],0.0,0.0,0.052734375,[0. 0. 0. 0. 0. 0. 0. 0. 0.],-1.9921875,-0.3046875,9.58203125,[0. 0. 0. 0. 0. 0. 0. 0. 0.]
1742667056480118038,1742667056,473441334,imu_link,-0.0318603515625,0.100341796875,0.2198486328125,0.9698486328125,[0. 0. 0. 0. 0. 0. 0. 0. 0.],0.0,0.0,0.052734375,[0. 0. 0. 0. 0. 0. 0. 0. 0.],-2.03125,-0.26953125,9.61328125,[0. 0. 0. 0. 0. 0. 0. 0. 0.]
1742667056498097853,1742667056,490778723,imu_link,-0.0318603515625,0.100341796875,0.2198486328125,0.9698486328125,[0. 0. 0. 0. 0. 0. 0. 0. 0.],-0.005859375,0.001953125,0.04296875,[0. 0. 0. 0. 0. 0. 0. 0. 0.],-2.03125,-0.26953125,9.61328125,[0. 0. 0. 0. 0. 0. 0. 0. 0.]
1742667056525610427,1742667056,510919612,imu_link,-0.03216552734375,0.10028076171875,0.220947265625,0.9696044921875,[0. 0. 0. 0. 0. 0. 0. 0. 0.],-0.005859375,0.001953125,0.04296875,[0. 0. 0. 0. 0. 0. 0. 0. 0.],-1.9921875,-0.3046875,9.50390625,[0. 0. 0. 0. 0. 0. 0. 0. 0.]
1742667056533174890,1742667056,530779260,imu_link,-0.03216552734375,0.10028076171875,0.220947265625,0.9696044921875,[0. 0. 0. 0. 0. 0. 0. 0. 0.],-0.005859375,0.001953125,0.04296875,[0. 0. 0. 0. 0. 0. 0. 0. 0.],-1.9921875,-0.3046875,9.50390625,[0. 0. 0. 0. 0. 0. 0. 0. 0.]
1742667056575444742,1742667056,550812205,imu_link,-0.03240966796875,0.1002197265625,0.22210693359375,0.96929931640625,[0. 0. 0. 0. 0. 0. 0. 0. 0.],-0.0078125,0.0,0.046875,[0. 0. 0. 0. 0. 0. 0. 0. 0.],-1.9921875,-0.26953125,9.61328125,[0. 0. 0. 0. 0. 0. 0. 0. 0.]
1742667056579960260,1742667056,578197242,imu_link,-0.03240966796875,0.1002197265625,0.22210693359375,0.96929931640625,[0. 0. 0. 0. 0. 0. 0. 0. 0.],-0.0078125,0.0,0.046875,[0. 0. 0. 0. 0. 0. 0. 0. 0.],-1.953125,-0.26953125,9.5390625,[0. 0. 0. 0. 0. 0. 0. 0. 0.]
1742667056599028556,1742667056,590855168,imu_link,-0.03240966796875,0.1002197265625,0.22210693359375,0.96929931640625,[0. 0. 0. 0. 0. 0. 0. 0. 0.],-0.005859375,0.00390625,0.041015625,[0. 0. 0. 0. 0. 0. 0. 0. 0.],-1.953125,-0.26953125,9.5390625,[0. 0. 0. 0. 0. 0. 0. 0. 0.]
1742667056625366316,1742667056,611034982,imu_link,-0.03265380859375,0.10009765625,0.22308349609375,0.9691162109375,[0. 0. 0. 0. 0. 0. 0. 0. 0.],-0.005859375,0.00390625,0.041015625,[0. 0. 0. 0. 0. 0. 0. 0. 0.],-2.0703125,-0.26953125,9.58203125,[0. 0. 0. 0. 0. 0. 0. 0. 0.]
1742667056637546927,1742667056,630761112,imu_link,-0.03265380859375,0.10009765625,0.22308349609375,0.9691162109375,[0. 0. 0. 0. 0. 0. 0. 0. 0.],-0.005859375,0.00390625,0.041015625,[0. 0. 0. 0. 0. 0. 0. 0. 0.],-2.0703125,-0.26953125,9.58203125,[0. 0. 0. 0. 0. 0. 0. 0. 0.]
1742667056658908723,1742667056,650792612,imu_link,-0.03265380859375,0.10009765625,0.22308349609375,0.9691162109375,[0. 0. 0. 0. 0. 0. 0. 0. 0.],-0.005859375,0.00390625,0.046875,[0. 0. 0. 0. 0. 0. 0. 0. 0.],-2.03125,-0.34375,9.578125,[0. 0. 0. 0. 0. 0. 0. 0. 0.]
1742667056685822927,1742667056,670815927,imu_link,-0.0328369140625,0.10003662109375,0.22412109375,0.9688720703125,[0. 0. 0. 0. 0. 0. 0. 0. 0.],-0.005859375,0.00390625,0.046875,[0. 0. 0. 0. 0. 0. 0. 0. 0.],-2.10546875,-0.3046875,9.5390625,[0. 0. 0. 0. 0. 0. 0. 0. 0.]
1742667056701859242,1742667056,690846149,imu_link,-0.0328369140625,0.10003662109375,0.22412109375,0.9688720703125,[0. 0. 0. 0. 0. 0. 0. 0. 0.],-0.001953125,0.0,0.0390625,[0. 0. 0. 0. 0. 0. 0. 0. 0.],-2.0703125,-0.34375,9.54296875,[0. 0. 0. 0. 0. 0. 0. 0. 0.]
1742667056723766853,1742667056,710973334,imu_link,-0.03302001953125,0.09991455078125,0.2249755859375,0.9686279296875,[0. 0. 0. 0. 0. 0. 0. 0. 0.],-0.001953125,0.0,0.0390625,[0. 0. 0. 0. 0. 0. 0. 0. 0.],-2.0703125,-0.34375,9.54296875,[0. 0. 0. 0. 0. 0. 0. 0. 0.]
1742667056734825686,1742667056,731371056,imu_link,-0.03302001953125,0.09991455078125,0.2249755859375,0.9686279296875,[0. 0. 0. 0. 0. 0. 0. 0. 0.],-0.001953125,0.0,0.0390625,[0. 0. 0. 0. 0. 0. 0. 0. 0.],-2.10546875,-0.3046875,9.61328125,[0. 0. 0. 0. 0. 0. 0. 0. 0.]
1742667056771606964,1742667056,750779297,imu_link,-0.03314208984375,0.099853515625,0.2259521484375,0.96844482421875,[0. 0. 0. 0. 0. 0. 0. 0. 0.],0.0,-0.001953125,0.037109375,[0. 0. 0. 0. 0. 0. 0. 0. 0.],-2.10546875,-0.3046875,9.61328125,[0. 0. 0. 0. 0. 0. 0. 0. 0.]
1742667056777640556,1742667056,774251482,imu_link,-0.03314208984375,0.099853515625,0.2259521484375,0.96844482421875,[0. 0. 0. 0. 0. 0. 0. 0. 0.],0.0,-0.001953125,0.037109375,[0. 0. 0. 0. 0. 0. 0. 0. 0.],-1.9921875,-0.3046875,9.58203125,[0. 0. 0. 0. 0. 0. 0. 0. 0.]
1742667056801453279,1742667056,790774075,imu_link,-0.03314208984375,0.099853515625,0.2259521484375,0.96844482421875,[0. 0. 0. 0. 0. 0. 0. 0. 0.],0.005859375,-0.001953125,0.03515625,[0. 0. 0. 0. 0. 0. 0. 0. 0.],-2.03125,-0.26953125,9.578125,[0. 0. 0. 0. 0. 0. 0. 0. 0.]
1742667056828220760,1742667056,810958186,imu_link,-0.03326416015625,0.099853515625,0.22674560546875,0.96826171875,[0. 0. 0. 0. 0. 0. 0. 0. 0.],0.005859375,-0.001953125,0.03515625,[0. 0. 0. 0. 0. 0. 0. 0. 0.],-2.03125,-0.26953125,9.578125,[0. 0. 0. 0. 0. 0. 0. 0. 0.]
1742667056834560390,1742667056,830751630,imu_link,-0.03326416015625,0.099853515625,0.22674560546875,0.96826171875,[0. 0. 0. 0. 0. 0. 0. 0. 0.],0.005859375,-0.001953125,0.03515625,[0. 0. 0. 0. 0. 0. 0. 0. 0.],-1.9921875,-0.26953125,9.5390625,[0. 0. 0. 0. 0. 0. 0. 0. 0.]
1742667056871229686,1742667056,850796427,imu_link,-0.0333251953125,0.09979248046875,0.22760009765625,0.96807861328125,[0. 0. 0. 0. 0. 0. 0. 0. 0.],0.0078125,-0.00390625,0.03515625,[0. 0. 0. 0. 0. 0. 0. 0. 0.],-1.9140625,-0.34375,9.5390625,[0. 0. 0. 0. 0. 0. 0. 0. 0.]
1742667056877523853,1742667056,873929945,imu_link,-0.0333251953125,0.09979248046875,0.22760009765625,0.96807861328125,[0. 0. 0. 0. 0. 0. 0. 0. 0.],0.0078125,-0.00390625,0.03515625,[0. 0. 0. 0. 0. 0. 0. 0. 0.],-1.9140625,-0.34375,9.5390625,[0. 0. 0. 0. 0. 0. 0. 0. 0.]
1742667056901936797,1742667056,890791279,imu_link,-0.0333251953125,0.09979248046875,0.22760009765625,0.96807861328125,[0. 0. 0. 0. 0. 0. 0. 0. 0.],0.005859375,0.0,0.037109375,[0. 0. 0. 0. 0. 0. 0. 0. 0.],-1.9921875,-0.34375,9.61328125,[0. 0. 0. 0. 0. 0. 0. 0. 0.]
1742667056925363816,1742667056,911012001,imu_link,-0.033447265625,0.09979248046875,0.228515625,0.96783447265625,[0. 0. 0. 0. 0. 0. 0. 0. 0.],0.005859375,0.0,0.037109375,[0. 0. 0. 0. 0. 0. 0. 0. 0.],-2.0703125,-0.34375,9.58203125,[0. 0. 0. 0. 0. 0. 0. 0. 0.]
1742667056934140482,1742667056,930770908,imu_link,-0.033447265625,0.09979248046875,0.228515625,0.96783447265625,[0. 0. 0. 0. 0. 0. 0. 0. 0.],0.005859375,0.0,0.037109375,[0. 0. 0. 0. 0. 0. 0. 0. 0.],-2.0703125,-0.34375,9.58203125,[0. 0. 0. 0. 0. 0. 0. 0. 0.]
1742667056972151093,1742667056,950853260,imu_link,-0.03369140625,0.0997314453125,0.22930908203125,0.9676513671875,[0. 0. 0. 0. 0. 0. 0. 0. 0.],-0.001953125,0.001953125,0.033203125,[0. 0. 0. 0. 0. 0. 0. 0. 0.],-2.0703125,-0.26953125,9.58203125,[0. 0. 0. 0. 0. 0. 0. 0. 0.]
1742667056977934482,1742667056,974887519,imu_link,-0.03369140625,0.0997314453125,0.22930908203125,0.9676513671875,[0. 0. 0. 0. 0. 0. 0. 0. 0.],-0.001953125,0.001953125,0.033203125,[0. 0. 0. 0. 0. 0. 0. 0. 0.],-2.0703125,-0.26953125,9.58203125,[0. 0. 0. 0. 0. 0. 0. 0. 0.]
1742667056998741908,1742667056,990790964,imu_link,-0.03369140625,0.0997314453125,0.22930908203125,0.9676513671875,[0. 0. 0. 0. 0. 0. 0. 0. 0.],-0.0078125,0.0,0.033203125,[0. 0. 0. 0. 0. 0. 0. 0. 0.],-2.0703125,-0.23046875,9.578125,[0. 0. 0. 0. 0. 0. 0. 0. 0.]
1742667057025028112,1742667057,11253797,imu_link,-0.03399658203125,0.099609375,0.2301025390625,0.96746826171875,[0. 0. 0. 0. 0. 0. 0. 0. 0.],-0.0078125,0.0,0.033203125,[0. 0. 0. 0. 0. 0. 0. 0. 0.],-2.0703125,-0.3046875,9.5390625,[0. 0. 0. 0. 0. 0. 0. 0. 0.]
1742667057034191223,1742667057,30786278,imu_link,-0.03399658203125,0.099609375,0.2301025390625,0.96746826171875,[0. 0. 0. 0. 0. 0. 0. 0. 0.],-0.0078125,0.0,0.033203125,[0. 0. 0. 0. 0. 0. 0. 0. 0.],-2.0703125,-0.3046875,9.5390625,[0. 0. 0. 0. 0. 0. 0. 0. 0.]
1742667057070900815,1742667057,50984075,imu_link,-0.0343017578125,0.0994873046875,0.2308349609375,0.96728515625,[0. 0. 0. 0. 0. 0. 0. 0. 0.],-0.005859375,-0.001953125,0.03125,[0. 0. 0. 0. 0. 0. 0. 0. 0.],-2.0703125,-0.3046875,9.578125,[0. 0. 0. 0. 0. 0. 0. 0. 0.]
1742667057079908352,1742667057,73152390,imu_link,-0.0343017578125,0.0994873046875,0.2308349609375,0.96728515625,[0. 0. 0. 0. 0. 0. 0. 0. 0.],-0.005859375,-0.001953125,0.03125,[0. 0. 0. 0. 0. 0. 0. 0. 0.],-2.03125,-0.34375,9.578125,[0. 0. 0. 0. 0. 0. 0. 0. 0.]
1742667057098515519,1742667057,90860723,imu_link,-0.0343017578125,0.0994873046875,0.2308349609375,0.96728515625,[0. 0. 0. 0. 0. 0. 0. 0. 0.],-0.001953125,0.001953125,0.029296875,[0. 0. 0. 0. 0. 0. 0. 0. 0.],-2.03125,-0.34375,9.578125,[0. 0. 0. 0. 0. 0. 0. 0. 0.]
1742667057125760112,1742667057,110910704,imu_link,-0.0345458984375,0.09942626953125,0.2315673828125,0.96710205078125,[0. 0. 0. 0. 0. 0. 0. 0. 0.],-0.001953125,0.001953125,0.029296875,[0. 0. 0. 0. 0. 0. 0. 0. 0.],-2.03125,-0.3828125,9.5390625,[0. 0. 0. 0. 0. 0. 0. 0. 0.]
1742667057134236260,1742667057,130765186,imu_link,-0.0345458984375,0.09942626953125,0.2315673828125,0.96710205078125,[0. 0. 0. 0. 0. 0. 0. 0. 0.],-0.001953125,0.001953125,0.029296875,[0. 0. 0. 0. 0. 0. 0. 0. 0.],-2.03125,-0.3828125,9.5390625,[0. 0. 0. 0. 0. 0. 0. 0. 0.]
1742667057177139352,1742667057,150806371,imu_link,-0.0347900390625,0.09930419921875,0.23248291015625,0.9669189453125,[0. 0. 0. 0. 0. 0. 0. 0. 0.],0.0,-0.005859375,0.041015625,[0. 0. 0. 0. 0. 0. 0. 0. 0.],-1.9921875,-0.23046875,9.609375,[0. 0. 0. 0. 0. 0. 0. 0. 0.]
1742667057181441038,1742667057,178995149,imu_link,-0.0347900390625,0.09930419921875,0.23248291015625,0.9669189453125,[0. 0. 0. 0. 0. 0. 0. 0. 0.],0.0,-0.005859375,0.041015625,[0. 0. 0. 0. 0. 0. 0. 0. 0.],-1.9921875,-0.23046875,9.609375,[0. 0. 0. 0. 0. 0. 0. 0. 0.]
1742667057198246464,1742667057,190882038,imu_link,-0.0347900390625,0.09930419921875,0.23248291015625,0.9669189453125,[0. 0. 0. 0. 0. 0. 0. 0. 0.],-0.001953125,-0.00390625,0.029296875,[0. 0. 0. 0. 0. 0. 0. 0. 0.],-1.9921875,-0.23046875,9.609375,[0. 0. 0. 0. 0. 0. 0. 0. 0.]
1742667057225305093,1742667057,210912575,imu_link,-0.03509521484375,0.09918212890625,0.2332763671875,0.96673583984375,[0. 0. 0. 0. 0. 0. 0. 0. 0.],-0.001953125,-0.00390625,0.029296875,[0. 0. 0. 0. 0. 0. 0. 0. 0.],-2.03125,-0.26953125,9.578125,[0. 0. 0. 0. 0. 0. 0. 0. 0.]
1742667057238362871,1742667057,230831501,imu_link,-0.03509521484375,0.09918212890625,0.2332763671875,0.96673583984375,[0. 0. 0. 0. 0. 0. 0. 0. 0.],-0.001953125,-0.00390625,0.029296875,[0. 0. 0. 0. 0. 0. 0. 0. 0.],-2.0703125,-0.34375,9.58203125,[0. 0. 0. 0. 0. 0. 0. 0. 0.]
1742667057258080445,1742667057,250800926,imu_link,-0.03509521484375,0.09918212890625,0.2332763671875,0.96673583984375,[0. 0. 0. 0. 0. 0. 0. 0. 0.],-0.001953125,-0.001953125,0.03515625,[0. 0. 0. 0. 0. 0. 0. 0. 0.],-2.0703125,-0.34375,9.58203125,[0. 0. 0. 0. 0. 0. 0. 0. 0.]
1742667057286042241,1742667057,270865538,imu_link,-0.0352783203125,0.09912109375,0.23406982421875,0.96649169921875,[0. 0. 0. 0. 0. 0. 0. 0. 0.],-0.001953125,-0.001953125,0.03515625,[0. 0. 0. 0. 0. 0. 0. 0. 0.],-2.10546875,-0.34375,9.58203125,[0. 0. 0. 0. 0. 0. 0. 0. 0.]
1742667057301077223,1742667057,290761778,imu_link,-0.0352783203125,0.09912109375,0.23406982421875,0.96649169921875,[0. 0. 0. 0. 0. 0. 0. 0. 0.],0.001953125,-0.001953125,0.03125,[0. 0. 0. 0. 0. 0. 0. 0. 0.],-2.03125,-0.34375,9.578125,[0. 0. 0. 0. 0. 0. 0. 0. 0.]
1742667057324521075,1742667057,310920760,imu_link,-0.035400390625,0.0989990234375,0.23480224609375,0.96630859375,[0. 0. 0. 0. 0. 0. 0. 0. 0.],0.001953125,-0.001953125,0.03125,[0. 0. 0. 0. 0. 0. 0. 0. 0.],-2.03125,-0.34375,9.578125,[0. 0. 0. 0. 0. 0. 0. 0. 0.]
1742667057334270334,1742667057,330768352,imu_link,-0.035400390625,0.0989990234375,0.23480224609375,0.96630859375,[0. 0. 0. 0. 0. 0. 0. 0. 0.],0.001953125,-0.001953125,0.03125,[0. 0. 0. 0. 0. 0. 0. 0. 0.],-1.9921875,-0.34375,9.5390625,[0. 0. 0. 0. 0. 0. 0. 0. 0.]
1742667057358120852,1742667057,350802852,imu_link,-0.035400390625,0.0989990234375,0.23480224609375,0.96630859375,[0. 0. 0. 0. 0. 0. 0. 0. 0.],0.0,-0.001953125,0.041015625,[0. 0. 0. 0. 0. 0. 0. 0. 0.],-1.9921875,-0.34375,9.5390625,[0. 0. 0. 0. 0. 0. 0. 0. 0.]
1742667057376627389,1742667057,373171241,imu_link,-0.0355224609375,0.09893798828125,0.2357177734375,0.96612548828125,[0. 0. 0. 0. 0. 0. 0. 0. 0.],0.0,-0.001953125,0.041015625,[0. 0. 0. 0. 0. 0. 0. 0. 0.],-2.03125,-0.34375,9.5390625,[0. 0. 0. 0. 0. 0. 0. 0. 0.]
1742667057402899130,1742667057,390844463,imu_link,-0.0355224609375,0.09893798828125,0.2357177734375,0.96612548828125,[0. 0. 0. 0. 0. 0. 0. 0. 0.],-0.00390625,-0.005859375,0.03125,[0. 0. 0. 0. 0. 0. 0. 0. 0.],-2.03125,-0.23046875,9.58203125,[0. 0. 0. 0. 0. 0. 0. 0. 0.]
1742667057428013260,1742667057,410891889,imu_link,-0.03570556640625,0.098876953125,0.236572265625,0.9659423828125,[0. 0. 0. 0. 0. 0. 0. 0. 0.],-0.00390625,-0.005859375,0.03125,[0. 0. 0. 0. 0. 0. 0. 0. 0.],-2.03125,-0.23046875,9.58203125,[0. 0. 0. 0. 0. 0. 0. 0. 0.]
1742667057434238704,1742667057,430771445,imu_link,-0.03570556640625,0.098876953125,0.236572265625,0.9659423828125,[0. 0. 0. 0. 0. 0. 0. 0. 0.],-0.00390625,-0.005859375,0.03125,[0. 0. 0. 0. 0. 0. 0. 0. 0.],-2.03125,-0.23046875,9.58203125,[0. 0. 0. 0. 0. 0. 0. 0. 0.]
1742667057469677556,1742667057,450869519,imu_link,-0.03594970703125,0.0987548828125,0.23724365234375,0.96575927734375,[0. 0. 0. 0. 0. 0. 0. 0. 0.],-0.001953125,-0.001953125,0.03125,[0. 0. 0. 0. 0. 0. 0. 0. 0.],-1.9921875,-0.3046875,9.58203125,[0. 0. 0. 0. 0. 0. 0. 0. 0.]
1742667057476173871,1742667057,472473963,imu_link,-0.03594970703125,0.0987548828125,0.23724365234375,0.96575927734375,[0. 0. 0. 0. 0. 0. 0. 0. 0.],-0.001953125,-0.001953125,0.03125,[0. 0. 0. 0. 0. 0. 0. 0. 0.],-1.9921875,-0.3046875,9.58203125,[0. 0. 0. 0. 0. 0. 0. 0. 0.]
1742667057502870000,1742667057,490842371,imu_link,-0.03594970703125,0.0987548828125,0.23724365234375,0.96575927734375,[0. 0. 0. 0. 0. 0. 0. 0. 0.],-0.00390625,-0.001953125,0.03125,[0. 0. 0. 0. 0. 0. 0. 0. 0.],-1.9921875,-0.3046875,9.58203125,[0. 0. 0. 0. 0. 0. 0. 0. 0.]
1742667057525744334,1742667057,510844556,imu_link,-0.03619384765625,0.0986328125,0.23797607421875,0.965576171875,[0. 0. 0. 0. 0. 0. 0. 0. 0.],-0.00390625,-0.001953125,0.03125,[0. 0. 0. 0. 0. 0. 0. 0. 0.],-1.953125,-0.34375,9.61328125,[0. 0. 0. 0. 0. 0. 0. 0. 0.]
1742667057534269334,1742667057,530768167,imu_link,-0.03619384765625,0.0986328125,0.23797607421875,0.965576171875,[0. 0. 0. 0. 0. 0. 0. 0. 0.],-0.00390625,-0.001953125,0.03125,[0. 0. 0. 0. 0. 0. 0. 0. 0.],-1.953125,-0.34375,9.61328125,[0. 0. 0. 0. 0. 0. 0. 0. 0.]
1742667057570015186,1742667057,550894649,imu_link,-0.03643798828125,0.0985107421875,0.23876953125,0.96539306640625,[0. 0. 0. 0. 0. 0. 0. 0. 0.],-0.005859375,0.0,0.033203125,[0. 0. 0. 0. 0. 0. 0. 0. 0.],-2.03125,-0.34375,9.578125,[0. 0. 0. 0. 0. 0. 0. 0. 0.]
1742667057576279130,1742667057,572570482,imu_link,-0.03643798828125,0.0985107421875,0.23876953125,0.96539306640625,[0. 0. 0. 0. 0. 0. 0. 0. 0.],-0.005859375,0.0,0.033203125,[0. 0. 0. 0. 0. 0. 0. 0. 0.],-2.03125,-0.34375,9.578125,[0. 0. 0. 0. 0. 0. 0. 0. 0.]
1742667057602100630,1742667057,590860630,imu_link,-0.03643798828125,0.0985107421875,0.23876953125,0.96539306640625,[0. 0. 0. 0. 0. 0. 0. 0. 0.],0.001953125,0.0,0.033203125,[0. 0. 0. 0. 0. 0. 0. 0. 0.],-2.0703125,-0.3046875,9.578125,[0. 0. 0. 0. 0. 0. 0. 0. 0.]
1742667057625284334,1742667057,610888167,imu_link,-0.03662109375,0.09844970703125,0.23956298828125,0.96514892578125,[0. 0. 0. 0. 0. 0. 0. 0. 0.],0.001953125,0.0,0.033203125,[0. 0. 0. 0. 0. 0. 0. 0. 0.],-2.03125,-0.3046875,9.58203125,[0. 0. 0. 0. 0. 0. 0. 0. 0.]
1742667057634244593,1742667057,630767389,imu_link,-0.03662109375,0.09844970703125,0.23956298828125,0.96514892578125,[0. 0. 0. 0. 0. 0. 0. 0. 0.],0.001953125,0.0,0.033203125,[0. 0. 0. 0. 0. 0. 0. 0. 0.],-2.03125,-0.3046875,9.58203125,[0. 0. 0. 0. 0. 0. 0. 0. 0.]
1742667057671918093,1742667057,650882482,imu_link,-0.03680419921875,0.098388671875,0.24041748046875,0.9649658203125,[0. 0. 0. 0. 0. 0. 0. 0. 0.],0.00390625,-0.001953125,0.037109375,[0. 0. 0. 0. 0. 0. 0. 0. 0.],-1.9921875,-0.34375,9.5390625,[0. 0. 0. 0. 0. 0. 0. 0. 0.]
1742667057681807667,1742667057,678840982,imu_link,-0.03680419921875,0.098388671875,0.24041748046875,0.9649658203125,[0. 0. 0. 0. 0. 0. 0. 0. 0.],0.00390625,-0.001953125,0.037109375,[0. 0. 0. 0. 0. 0. 0. 0. 0.],-1.953125,-0.3046875,9.54296875,[0. 0. 0. 0. 0. 0. 0. 0. 0.]
1742667057697712760,1742667057,690964222,imu_link,-0.03680419921875,0.098388671875,0.24041748046875,0.9649658203125,[0. 0. 0. 0. 0. 0. 0. 0. 0.],-0.001953125,0.0,0.03125,[0. 0. 0. 0. 0. 0. 0. 0. 0.],-1.953125,-0.3046875,9.54296875,[0. 0. 0. 0. 0. 0. 0. 0. 0.]
1742667057725834389,1742667057,710915834,imu_link,-0.0369873046875,0.0982666015625,0.2412109375,0.96478271484375,[0. 0. 0. 0. 0. 0. 0. 0. 0.],-0.001953125,0.0,0.03125,[0. 0. 0. 0. 0. 0. 0. 0. 0.],-1.953125,-0.3046875,9.69140625,[0. 0. 0. 0. 0. 0. 0. 0. 0.]
1742667057734413519,1742667057,730860871,imu_link,-0.0369873046875,0.0982666015625,0.2412109375,0.96478271484375,[0. 0. 0. 0. 0. 0. 0. 0. 0.],-0.001953125,0.0,0.03125,[0. 0. 0. 0. 0. 0. 0. 0. 0.],-1.953125,-0.3046875,9.69140625,[0. 0. 0. 0. 0. 0. 0. 0. 0.]
1742667057754309926,1742667057,750822259,imu_link,-0.0369873046875,0.0982666015625,0.2412109375,0.96478271484375,[0. 0. 0. 0. 0. 0. 0. 0. 0.],-0.005859375,-0.00390625,0.041015625,[0. 0. 0. 0. 0. 0. 0. 0. 0.],-1.9140625,-0.34375,9.5,[0. 0. 0. 0. 0. 0. 0. 0. 0.]
1742667057785137445,1742667057,770852297,imu_link,-0.03717041015625,0.09820556640625,0.2420654296875,0.96453857421875,[0. 0. 0. 0. 0. 0. 0. 0. 0.],-0.005859375,-0.00390625,0.041015625,[0. 0. 0. 0. 0. 0. 0. 0. 0.],-1.953125,-0.34375,9.5390625,[0. 0. 0. 0. 0. 0. 0. 0. 0.]
1742667057798284871,1742667057,790766297,imu_link,-0.03717041015625,0.09820556640625,0.2420654296875,0.96453857421875,[0. 0. 0. 0. 0. 0. 0. 0. 0.],-0.001953125,-0.00390625,0.0390625,[0. 0. 0. 0. 0. 0. 0. 0. 0.],-1.953125,-0.34375,9.5390625,[0. 0. 0. 0. 0. 0. 0. 0. 0.]
1742667057825314204,1742667057,810893463,imu_link,-0.03729248046875,0.09808349609375,0.2430419921875,0.96429443359375,[0. 0. 0. 0. 0. 0. 0. 0. 0.],-0.001953125,-0.00390625,0.0390625,[0. 0. 0. 0. 0. 0. 0. 0. 0.],-2.03125,-0.3046875,9.609375,[0. 0. 0. 0. 0. 0. 0. 0. 0.]
1742667057837891371,1742667057,830782426,imu_link,-0.03729248046875,0.09808349609375,0.2430419921875,0.96429443359375,[0. 0. 0. 0. 0. 0. 0. 0. 0.],-0.001953125,-0.00390625,0.0390625,[0. 0. 0. 0. 0. 0. 0. 0. 0.],-2.10546875,-0.34375,9.54296875,[0. 0. 0. 0. 0. 0. 0. 0. 0.]
1742667057854349834,1742667057,850880278,imu_link,-0.03729248046875,0.09808349609375,0.2430419921875,0.96429443359375,[0. 0. 0. 0. 0. 0. 0. 0. 0.],-0.001953125,0.0,0.03515625,[0. 0. 0. 0. 0. 0. 0. 0. 0.],-2.10546875,-0.34375,9.54296875,[0. 0. 0. 0. 0. 0. 0. 0. 0.]
1742667057886507926,1742667057,870998593,imu_link,-0.037353515625,0.09796142578125,0.243896484375,0.964111328125,[0. 0. 0. 0. 0. 0. 0. 0. 0.],-0.001953125,0.0,0.03515625,[0. 0. 0. 0. 0. 0. 0. 0. 0.],-2.14453125,-0.3046875,9.54296875,[0. 0. 0. 0. 0. 0. 0. 0. 0.]
1742667057902148556,1742667057,890764519,imu_link,-0.037353515625,0.09796142578125,0.243896484375,0.964111328125,[0. 0. 0. 0. 0. 0. 0. 0. 0.],0.001953125,-0.001953125,0.03125,[0. 0. 0. 0. 0. 0. 0. 0. 0.],-2.0703125,-0.26953125,9.54296875,[0. 0. 0. 0. 0. 0. 0. 0. 0.]
1742667057924454093,1742667057,910925796,imu_link,-0.03741455078125,0.09783935546875,0.24456787109375,0.96392822265625,[0. 0. 0. 0. 0. 0. 0. 0. 0.],0.001953125,-0.001953125,0.03125,[0. 0. 0. 0. 0. 0. 0. 0. 0.],-2.0703125,-0.26953125,9.54296875,[0. 0. 0. 0. 0. 0. 0. 0. 0.]
1742667057934670445,1742667057,931292667,imu_link,-0.03741455078125,0.09783935546875,0.24456787109375,0.96392822265625,[0. 0. 0. 0. 0. 0. 0. 0. 0.],0.001953125,-0.001953125,0.03125,[0. 0. 0. 0. 0. 0. 0. 0. 0.],-1.9921875,-0.34375,9.61328125,[0. 0. 0. 0. 0. 0. 0. 0. 0.]
1742667057957568963,1742667057,950878000,imu_link,-0.03741455078125,0.09783935546875,0.24456787109375,0.96392822265625,[0. 0. 0. 0. 0. 0. 0. 0. 0.],0.001953125,-0.001953125,0.0390625,[0. 0. 0. 0. 0. 0. 0. 0. 0.],-1.9921875,-0.34375,9.61328125,[0. 0. 0. 0. 0. 0. 0. 0. 0.]
1742667057974826315,1742667057,971014463,imu_link,-0.03753662109375,0.09771728515625,0.24542236328125,0.9637451171875,[0. 0. 0. 0. 0. 0. 0. 0. 0.],0.001953125,-0.001953125,0.0390625,[0. 0. 0. 0. 0. 0. 0. 0. 0.],-1.953125,-0.34375,9.61328125,[0. 0. 0. 0. 0. 0. 0. 0. 0.]
1742667058003268278,1742667057,990867833,imu_link,-0.03753662109375,0.09771728515625,0.24542236328125,0.9637451171875,[0. 0. 0. 0. 0. 0. 0. 0. 0.],0.001953125,0.001953125,0.03125,[0. 0. 0. 0. 0. 0. 0. 0. 0.],-1.953125,-0.26953125,9.5390625,[0. 0. 0. 0. 0. 0. 0. 0. 0.]
1742667058028054370,1742667058,10909519,imu_link,-0.0377197265625,0.09765625,0.2462158203125,0.96356201171875,[0. 0. 0. 0. 0. 0. 0. 0. 0.],0.001953125,0.001953125,0.03125,[0. 0. 0. 0. 0. 0. 0. 0. 0.],-1.953125,-0.3046875,9.609375,[0. 0. 0. 0. 0. 0. 0. 0. 0.]
1742667058034507889,1742667058,30759407,imu_link,-0.0377197265625,0.09765625,0.2462158203125,0.96356201171875,[0. 0. 0. 0. 0. 0. 0. 0. 0.],0.001953125,0.001953125,0.03125,[0. 0. 0. 0. 0. 0. 0. 0. 0.],-1.953125,-0.3046875,9.609375,[0. 0. 0. 0. 0. 0. 0. 0. 0.]
1742667058070757074,1742667058,51062852,imu_link,-0.037841796875,0.09765625,0.2469482421875,0.96337890625,[0. 0. 0. 0. 0. 0. 0. 0. 0.],0.005859375,0.0,0.033203125,[0. 0. 0. 0. 0. 0. 0. 0. 0.],-1.9921875,-0.3046875,9.58203125,[0. 0. 0. 0. 0. 0. 0. 0. 0.]
1742667058076666296,1742667058,73399722,imu_link,-0.037841796875,0.09765625,0.2469482421875,0.96337890625,[0. 0. 0. 0. 0. 0. 0. 0. 0.],0.005859375,0.0,0.033203125,[0. 0. 0. 0. 0. 0. 0. 0. 0.],-1.9921875,-0.3046875,9.58203125,[0. 0. 0. 0. 0. 0. 0. 0. 0.]
1742667058102904574,1742667058,90806815,imu_link,-0.037841796875,0.09765625,0.2469482421875,0.96337890625,[0. 0. 0. 0. 0. 0. 0. 0. 0.],0.009765625,-0.00390625,0.03515625,[0. 0. 0. 0. 0. 0. 0. 0. 0.],-2.03125,-0.3046875,9.46484375,[0. 0. 0. 0. 0. 0. 0. 0. 0.]
1742667058125417333,1742667058,110808204,imu_link,-0.037841796875,0.0975341796875,0.247802734375,0.963134765625,[0. 0. 0. 0. 0. 0. 0. 0. 0.],0.009765625,-0.00390625,0.03515625,[0. 0. 0. 0. 0. 0. 0. 0. 0.],-2.10546875,-0.26953125,9.6484375,[0. 0. 0. 0. 0. 0. 0. 0. 0.]
1742667058134238759,1742667058,130800148,imu_link,-0.037841796875,0.0975341796875,0.247802734375,0.963134765625,[0. 0. 0. 0. 0. 0. 0. 0. 0.],0.009765625,-0.00390625,0.03515625,[0. 0. 0. 0. 0. 0. 0. 0. 0.],-2.10546875,-0.26953125,9.6484375,[0. 0. 0. 0. 0. 0. 0. 0. 0.]
1742667058172118556,1742667058,150869407,imu_link,-0.0379638671875,0.0975341796875,0.24835205078125,0.9630126953125,[0. 0. 0. 0. 0. 0. 0. 0. 0.],0.00390625,0.001953125,0.021484375,[0. 0. 0. 0. 0. 0. 0. 0. 0.],-2.03125,-0.34375,9.578125,[0. 0. 0. 0. 0. 0. 0. 0. 0.]
1742667058177275667,1742667058,174779926,imu_link,-0.0379638671875,0.0975341796875,0.24835205078125,0.9630126953125,[0. 0. 0. 0. 0. 0. 0. 0. 0.],0.00390625,0.001953125,0.021484375,[0. 0. 0. 0. 0. 0. 0. 0. 0.],-2.03125,-0.34375,9.578125,[0. 0. 0. 0. 0. 0. 0. 0. 0.]
1742667058202636778,1742667058,190955148,imu_link,-0.0379638671875,0.0975341796875,0.24835205078125,0.9630126953125,[0. 0. 0. 0. 0. 0. 0. 0. 0.],-0.00390625,0.00390625,0.029296875,[0. 0. 0. 0. 0. 0. 0. 0. 0.],-2.0703125,-0.3046875,9.578125,[0. 0. 0. 0. 0. 0. 0. 0. 0.]
1742667058225071778,1742667058,210870500,imu_link,-0.03814697265625,0.0975341796875,0.24896240234375,0.96282958984375,[0. 0. 0. 0. 0. 0. 0. 0. 0.],-0.00390625,0.00390625,0.029296875,[0. 0. 0. 0. 0. 0. 0. 0. 0.],-2.0703125,-0.23046875,9.5,[0. 0. 0. 0. 0. 0. 0. 0. 0.]
1742667058234348926,1742667058,230857704,imu_link,-0.03814697265625,0.0975341796875,0.24896240234375,0.96282958984375,[0. 0. 0. 0. 0. 0. 0. 0. 0.],-0.00390625,0.00390625,0.029296875,[0. 0. 0. 0. 0. 0. 0. 0. 0.],-2.0703125,-0.23046875,9.5,[0. 0. 0. 0. 0. 0. 0. 0. 0.]
1742667058272465167,1742667058,250870741,imu_link,-0.03826904296875,0.0975341796875,0.24951171875,0.96270751953125,[0. 0. 0. 0. 0. 0. 0. 0. 0.],-0.005859375,-0.001953125,0.01953125,[0. 0. 0. 0. 0. 0. 0. 0. 0.],-2.10546875,-0.26953125,9.58203125,[0. 0. 0. 0. 0. 0. 0. 0. 0.]
1742667058282147481,1742667058,278777389,imu_link,-0.03826904296875,0.0975341796875,0.24951171875,0.96270751953125,[0. 0. 0. 0. 0. 0. 0. 0. 0.],-0.005859375,-0.001953125,0.01953125,[0. 0. 0. 0. 0. 0. 0. 0. 0.],-2.03125,-0.34375,9.5390625,[0. 0. 0. 0. 0. 0. 0. 0. 0.]
1742667058297649093,1742667058,290826796,imu_link,-0.03826904296875,0.0975341796875,0.24951171875,0.96270751953125,[0. 0. 0. 0. 0. 0. 0. 0. 0.],-0.005859375,0.0,0.025390625,[0. 0. 0. 0. 0. 0. 0. 0. 0.],-2.03125,-0.34375,9.5390625,[0. 0. 0. 0. 0. 0. 0. 0. 0.]
1742667058325125352,1742667058,310929000,imu_link,-0.038330078125,0.0975341796875,0.25006103515625,0.9625244140625,[0. 0. 0. 0. 0. 0. 0. 0. 0.],-0.005859375,0.0,0.025390625,[0. 0. 0. 0. 0. 0. 0. 0. 0.],-2.03125,-0.34375,9.578125,[0. 0. 0. 0. 0. 0. 0. 0. 0.]
1742667058334737352,1742667058,330794370,imu_link,-0.038330078125,0.0975341796875,0.25006103515625,0.9625244140625,[0. 0. 0. 0. 0. 0. 0. 0. 0.],-0.005859375,0.0,0.025390625,[0. 0. 0. 0. 0. 0. 0. 0. 0.],-2.03125,-0.34375,9.578125,[0. 0. 0. 0. 0. 0. 0. 0. 0.]
1742667058375210648,1742667058,350880518,imu_link,-0.0382080078125,0.09759521484375,0.25054931640625,0.96240234375,[0. 0. 0. 0. 0. 0. 0. 0. 0.],-0.00390625,-0.001953125,0.021484375,[0. 0. 0. 0. 0. 0. 0. 0. 0.],-2.03125,-0.3046875,9.6484375,[0. 0. 0. 0. 0. 0. 0. 0. 0.]
1742667058379327278,1742667058,376923833,imu_link,-0.0382080078125,0.09759521484375,0.25054931640625,0.96240234375,[0. 0. 0. 0. 0. 0. 0. 0. 0.],-0.00390625,-0.001953125,0.021484375,[0. 0. 0. 0. 0. 0. 0. 0. 0.],-1.87890625,-0.3828125,9.46484375,[0. 0. 0. 0. 0. 0. 0. 0. 0.]
1742667058397457315,1742667058,390862778,imu_link,-0.0382080078125,0.09759521484375,0.25054931640625,0.96240234375,[0. 0. 0. 0. 0. 0. 0. 0. 0.],0.0,-0.005859375,0.02734375,[0. 0. 0. 0. 0. 0. 0. 0. 0.],-1.87890625,-0.3828125,9.46484375,[0. 0. 0. 0. 0. 0. 0. 0. 0.]
1742667058425003444,1742667058,410980685,imu_link,-0.03814697265625,0.09759521484375,0.25115966796875,0.9622802734375,[0. 0. 0. 0. 0. 0. 0. 0. 0.],0.0,-0.005859375,0.02734375,[0. 0. 0. 0. 0. 0. 0. 0. 0.],-1.83984375,-0.26953125,9.609375,[0. 0. 0. 0. 0. 0. 0. 0. 0.]
1742667058443132963,1742667058,430757481,imu_link,-0.03814697265625,0.09759521484375,0.25115966796875,0.9622802734375,[0. 0. 0. 0. 0. 0. 0. 0. 0.],0.0,-0.001953125,0.015625,[0. 0. 0. 0. 0. 0. 0. 0. 0.],-1.9921875,-0.19140625,9.609375,[0. 0. 0. 0. 0. 0. 0. 0. 0.]
1742667058454154815,1742667058,450785018,imu_link,-0.03814697265625,0.09759521484375,0.25115966796875,0.9622802734375,[0. 0. 0. 0. 0. 0. 0. 0. 0.],0.0,-0.001953125,0.015625,[0. 0. 0. 0. 0. 0. 0. 0. 0.],-1.9921875,-0.19140625,9.609375,[0. 0. 0. 0. 0. 0. 0. 0. 0.]
1742667058485185500,1742667058,470812370,imu_link,-0.03814697265625,0.0975341796875,0.25152587890625,0.962158203125,[0. 0. 0. 0. 0. 0. 0. 0. 0.],0.0,-0.001953125,0.015625,[0. 0. 0. 0. 0. 0. 0. 0. 0.],-2.0703125,-0.3046875,9.61328125,[0. 0. 0. 0. 0. 0. 0. 0. 0.]
1742667058501947796,1742667058,490788833,imu_link,-0.03814697265625,0.0975341796875,0.25152587890625,0.962158203125,[0. 0. 0. 0. 0. 0. 0. 0. 0.],0.00390625,0.001953125,0.021484375,[0. 0. 0. 0. 0. 0. 0. 0. 0.],-2.10546875,-0.26953125,9.54296875,[0. 0. 0. 0. 0. 0. 0. 0. 0.]
1742667058524286241,1742667058,511098852,imu_link,-0.0382080078125,0.09747314453125,0.25201416015625,0.9620361328125,[0. 0. 0. 0. 0. 0. 0. 0. 0.],0.00390625,0.001953125,0.021484375,[0. 0. 0. 0. 0. 0. 0. 0. 0.],-2.10546875,-0.26953125,9.54296875,[0. 0. 0. 0. 0. 0. 0. 0. 0.]
1742667058541918463,1742667058,530828815,imu_link,-0.0382080078125,0.09747314453125,0.25201416015625,0.9620361328125,[0. 0. 0. 0. 0. 0. 0. 0. 0.],0.01171875,0.0,0.01171875,[0. 0. 0. 0. 0. 0. 0. 0. 0.],-2.14453125,-0.3046875,9.54296875,[0. 0. 0. 0. 0. 0. 0. 0. 0.]
1742667058554360092,1742667058,550830889,imu_link,-0.0382080078125,0.09747314453125,0.25201416015625,0.9620361328125,[0. 0. 0. 0. 0. 0. 0. 0. 0.],0.01171875,0.0,0.01171875,[0. 0. 0. 0. 0. 0. 0. 0. 0.],-2.14453125,-0.3046875,9.54296875,[0. 0. 0. 0. 0. 0. 0. 0. 0.]
1742667058596443037,1742667058,570806037,imu_link,-0.0382080078125,0.09747314453125,0.2523193359375,0.96197509765625,[0. 0. 0. 0. 0. 0. 0. 0. 0.],0.009765625,0.001953125,0.025390625,[0. 0. 0. 0. 0. 0. 0. 0. 0.],-2.0703125,-0.3828125,9.609375,[0. 0. 0. 0. 0. 0. 0. 0. 0.]
1742667058602672352,1742667058,599224759,imu_link,-0.0382080078125,0.09747314453125,0.2523193359375,0.96197509765625,[0. 0. 0. 0. 0. 0. 0. 0. 0.],0.009765625,0.001953125,0.025390625,[0. 0. 0. 0. 0. 0. 0. 0. 0.],-1.953125,-0.3828125,9.5,[0. 0. 0. 0. 0. 0. 0. 0. 0.]
1742667058627880277,1742667058,610952370,imu_link,-0.038330078125,0.097412109375,0.25286865234375,0.9617919921875,[0. 0. 0. 0. 0. 0. 0. 0. 0.],0.009765625,0.001953125,0.025390625,[0. 0. 0. 0. 0. 0. 0. 0. 0.],-1.953125,-0.19140625,9.6484375,[0. 0. 0. 0. 0. 0. 0. 0. 0.]
1742667058634666018,1742667058,630868277,imu_link,-0.038330078125,0.097412109375,0.25286865234375,0.9617919921875,[0. 0. 0. 0. 0. 0. 0. 0. 0.],0.009765625,0.001953125,0.025390625,[0. 0. 0. 0. 0. 0. 0. 0. 0.],-1.953125,-0.19140625,9.6484375,[0. 0. 0. 0. 0. 0. 0. 0. 0.]
1742667058672122722,1742667058,650882389,imu_link,-0.03839111328125,0.097412109375,0.253173828125,0.96173095703125,[0. 0. 0. 0. 0. 0. 0. 0. 0.],0.009765625,-0.001953125,0.009765625,[0. 0. 0. 0. 0. 0. 0. 0. 0.],-1.953125,-0.26953125,9.578125,[0. 0. 0. 0. 0. 0. 0. 0. 0.]
1742667058676586963,1742667058,674720055,imu_link,-0.03839111328125,0.097412109375,0.253173828125,0.96173095703125,[0. 0. 0. 0. 0. 0. 0. 0. 0.],0.009765625,-0.001953125,0.009765625,[0. 0. 0. 0. 0. 0. 0. 0. 0.],-1.953125,-0.26953125,9.578125,[0. 0. 0. 0. 0. 0. 0. 0. 0.]
1742667058702346759,1742667058,690964666,imu_link,-0.03839111328125,0.097412109375,0.253173828125,0.96173095703125,[0. 0. 0. 0. 0. 0. 0. 0. 0.],0.0078125,0.001953125,0.025390625,[0. 0. 0. 0. 0. 0. 0. 0. 0.],-1.9921875,-0.3828125,9.5,[0. 0. 0. 0. 0. 0. 0. 0. 0.]
1742667058724810500,1742667058,710764185,imu_link,-0.0384521484375,0.09735107421875,0.25360107421875,0.96160888671875,[0. 0. 0. 0. 0. 0. 0. 0. 0.],0.0078125,0.001953125,0.025390625,[0. 0. 0. 0. 0. 0. 0. 0. 0.],-2.10546875,-0.3046875,9.578125,[0. 0. 0. 0. 0. 0. 0. 0. 0.]
1742667058734422907,1742667058,730798407,imu_link,-0.0384521484375,0.09735107421875,0.25360107421875,0.96160888671875,[0. 0. 0. 0. 0. 0. 0. 0. 0.],0.0078125,0.001953125,0.025390625,[0. 0. 0. 0. 0. 0. 0. 0. 0.],-2.10546875,-0.3046875,9.578125,[0. 0. 0. 0. 0. 0. 0. 0. 0.]
1742667058766922092,1742667058,750759426,imu_link,-0.03851318359375,0.09735107421875,0.25396728515625,0.9615478515625,[0. 0. 0. 0. 0. 0. 0. 0. 0.],0.0078125,0.001953125,0.01171875,[0. 0. 0. 0. 0. 0. 0. 0. 0.],-2.10546875,-0.34375,9.58203125,[0. 0. 0. 0. 0. 0. 0. 0. 0.]
1742667058774105666,1742667058,770734629,imu_link,-0.03851318359375,0.09735107421875,0.25396728515625,0.9615478515625,[0. 0. 0. 0. 0. 0. 0. 0. 0.],0.0078125,0.001953125,0.01171875,[0. 0. 0. 0. 0. 0. 0. 0. 0.],-2.10546875,-0.34375,9.58203125,[0. 0. 0. 0. 0. 0. 0. 0. 0.]
1742667058802251592,1742667058,790821481,imu_link,-0.03851318359375,0.09735107421875,0.25396728515625,0.9615478515625,[0. 0. 0. 0. 0. 0. 0. 0. 0.],0.009765625,0.00390625,0.02734375,[0. 0. 0. 0. 0. 0. 0. 0. 0.],-2.03125,-0.3828125,9.5390625,[0. 0. 0. 0. 0. 0. 0. 0. 0.]
1742667058824043370,1742667058,810755463,imu_link,-0.03857421875,0.09735107421875,0.25457763671875,0.96136474609375,[0. 0. 0. 0. 0. 0. 0. 0. 0.],0.009765625,0.00390625,0.02734375,[0. 0. 0. 0. 0. 0. 0. 0. 0.],-2.0703125,-0.26953125,9.6484375,[0. 0. 0. 0. 0. 0. 0. 0. 0.]
1742667058834969963,1742667058,830764537,imu_link,-0.03857421875,0.09735107421875,0.25457763671875,0.96136474609375,[0. 0. 0. 0. 0. 0. 0. 0. 0.],0.009765625,0.00390625,0.02734375,[0. 0. 0. 0. 0. 0. 0. 0. 0.],-2.0703125,-0.26953125,9.6484375,[0. 0. 0. 0. 0. 0. 0. 0. 0.]
1742667058871207333,1742667058,850838500,imu_link,-0.03863525390625,0.097412109375,0.25494384765625,0.96124267578125,[0. 0. 0. 0. 0. 0. 0. 0. 0.],0.0078125,0.0,0.009765625,[0. 0. 0. 0. 0. 0. 0. 0. 0.],-2.03125,-0.23046875,9.50390625,[0. 0. 0. 0. 0. 0. 0. 0. 0.]
1742667058880597333,1742667058,876971185,imu_link,-0.03863525390625,0.097412109375,0.25494384765625,0.96124267578125,[0. 0. 0. 0. 0. 0. 0. 0. 0.],0.0078125,0.0,0.009765625,[0. 0. 0. 0. 0. 0. 0. 0. 0.],-1.953125,-0.34375,9.5390625,[0. 0. 0. 0. 0. 0. 0. 0. 0.]
1742667058897357074,1742667058,890821111,imu_link,-0.03863525390625,0.097412109375,0.25494384765625,0.96124267578125,[0. 0. 0. 0. 0. 0. 0. 0. 0.],0.005859375,-0.00390625,0.01953125,[0. 0. 0. 0. 0. 0. 0. 0. 0.],-1.953125,-0.34375,9.5390625,[0. 0. 0. 0. 0. 0. 0. 0. 0.]
1742667058924010092,1742667058,910791425,imu_link,-0.03863525390625,0.097412109375,0.25537109375,0.961181640625,[0. 0. 0. 0. 0. 0. 0. 0. 0.],0.005859375,-0.00390625,0.01953125,[0. 0. 0. 0. 0. 0. 0. 0. 0.],-1.9140625,-0.26953125,9.578125,[0. 0. 0. 0. 0. 0. 0. 0. 0.]
1742667058934174722,1742667058,930732240,imu_link,-0.03863525390625,0.097412109375,0.25537109375,0.961181640625,[0. 0. 0. 0. 0. 0. 0. 0. 0.],0.005859375,-0.00390625,0.01953125,[0. 0. 0. 0. 0. 0. 0. 0. 0.],-1.9140625,-0.26953125,9.578125,[0. 0. 0. 0. 0. 0. 0. 0. 0.]
1742667058974623611,1742667058,950834481,imu_link,-0.03863525390625,0.09735107421875,0.25567626953125,0.9610595703125,[0. 0. 0. 0. 0. 0. 0. 0. 0.],0.0,-0.001953125,0.015625,[0. 0. 0. 0. 0. 0. 0. 0. 0.],-2.10546875,-0.34375,9.54296875,[0. 0. 0. 0. 0. 0. 0. 0. 0.]
1742667058980004925,1742667058,976476111,imu_link,-0.03863525390625,0.09735107421875,0.25567626953125,0.9610595703125,[0. 0. 0. 0. 0. 0. 0. 0. 0.],0.0,-0.001953125,0.015625,[0. 0. 0. 0. 0. 0. 0. 0. 0.],-2.10546875,-0.34375,9.54296875,[0. 0. 0. 0. 0. 0. 0. 0. 0.]
1742667058996702388,1742667058,990814740,imu_link,-0.03863525390625,0.09735107421875,0.25567626953125,0.9610595703125,[0. 0. 0. 0. 0. 0. 0. 0. 0.],-0.001953125,-0.00390625,0.025390625,[0. 0. 0. 0. 0. 0. 0. 0. 0.],-2.10546875,-0.34375,9.54296875,[0. 0. 0. 0. 0. 0. 0. 0. 0.]
1742667059024736518,1742667059,11104777,imu_link,-0.03863525390625,0.0972900390625,0.2562255859375,0.9609375,[0. 0. 0. 0. 0. 0. 0. 0. 0.],-0.001953125,-0.00390625,0.025390625,[0. 0. 0. 0. 0. 0. 0. 0. 0.],-1.9921875,-0.34375,9.5,[0. 0. 0. 0. 0. 0. 0. 0. 0.]
1742667059041730370,1742667059,30786999,imu_link,-0.03863525390625,0.0972900390625,0.2562255859375,0.9609375,[0. 0. 0. 0. 0. 0. 0. 0. 0.],-0.00390625,-0.00390625,0.01953125,[0. 0. 0. 0. 0. 0. 0. 0. 0.],-1.9921875,-0.23046875,9.6484375,[0. 0. 0. 0. 0. 0. 0. 0. 0.]
1742667059053737148,1742667059,50819888,imu_link,-0.03863525390625,0.0972900390625,0.2562255859375,0.9609375,[0. 0. 0. 0. 0. 0. 0. 0. 0.],-0.00390625,-0.00390625,0.01953125,[0. 0. 0. 0. 0. 0. 0. 0. 0.],-1.9921875,-0.23046875,9.6484375,[0. 0. 0. 0. 0. 0. 0. 0. 0.]
1742667059084124796,1742667059,70730925,imu_link,-0.03863525390625,0.09722900390625,0.25677490234375,0.9608154296875,[0. 0. 0. 0. 0. 0. 0. 0. 0.],-0.00390625,-0.00390625,0.01953125,[0. 0. 0. 0. 0. 0. 0. 0. 0.],-1.9921875,-0.23046875,9.54296875,[0. 0. 0. 0. 0. 0. 0. 0. 0.]
1742667059101560851,1742667059,90814129,imu_link,-0.03863525390625,0.09722900390625,0.25677490234375,0.9608154296875,[0. 0. 0. 0. 0. 0. 0. 0. 0.],-0.00390625,-0.00390625,0.015625,[0. 0. 0. 0. 0. 0. 0. 0. 0.],-2.03125,-0.3046875,9.58203125,[0. 0. 0. 0. 0. 0. 0. 0. 0.]
1742667059123928185,1742667059,110803722,imu_link,-0.03863525390625,0.09710693359375,0.257080078125,0.960693359375,[0. 0. 0. 0. 0. 0. 0. 0. 0.],-0.00390625,-0.00390625,0.015625,[0. 0. 0. 0. 0. 0. 0. 0. 0.],-2.03125,-0.3046875,9.58203125,[0. 0. 0. 0. 0. 0. 0. 0. 0.]
1742667059142962370,1742667059,130742388,imu_link,-0.03863525390625,0.09710693359375,0.257080078125,0.960693359375,[0. 0. 0. 0. 0. 0. 0. 0. 0.],-0.005859375,-0.001953125,0.021484375,[0. 0. 0. 0. 0. 0. 0. 0. 0.],-2.03125,-0.26953125,9.61328125,[0. 0. 0. 0. 0. 0. 0. 0. 0.]
1742667059153714536,1742667059,150790536,imu_link,-0.03863525390625,0.09710693359375,0.257080078125,0.960693359375,[0. 0. 0. 0. 0. 0. 0. 0. 0.],-0.005859375,-0.001953125,0.021484375,[0. 0. 0. 0. 0. 0. 0. 0. 0.],-2.03125,-0.26953125,9.61328125,[0. 0. 0. 0. 0. 0. 0. 0. 0.]
1742667059183369592,1742667059,170768444,imu_link,-0.03863525390625,0.0970458984375,0.25750732421875,0.96063232421875,[0. 0. 0. 0. 0. 0. 0. 0. 0.],-0.005859375,-0.001953125,0.021484375,[0. 0. 0. 0. 0. 0. 0. 0. 0.],-2.0703125,-0.23046875,9.5,[0. 0. 0. 0. 0. 0. 0. 0. 0.]
1742667059201671166,1742667059,190930185,imu_link,-0.03863525390625,0.0970458984375,0.25750732421875,0.96063232421875,[0. 0. 0. 0. 0. 0. 0. 0. 0.],-0.001953125,-0.00390625,0.01171875,[0. 0. 0. 0. 0. 0. 0. 0. 0.],-2.03125,-0.3046875,9.609375,[0. 0. 0. 0. 0. 0. 0. 0. 0.]
1742667059227236610,1742667059,210798444,imu_link,-0.0386962890625,0.09698486328125,0.2578125,0.96051025390625,[0. 0. 0. 0. 0. 0. 0. 0. 0.],-0.001953125,-0.00390625,0.01171875,[0. 0. 0. 0. 0. 0. 0. 0. 0.],-1.9921875,-0.34375,9.61328125,[0. 0. 0. 0. 0. 0. 0. 0. 0.]
1742667059233461777,1742667059,230736222,imu_link,-0.0386962890625,0.09698486328125,0.2578125,0.96051025390625,[0. 0. 0. 0. 0. 0. 0. 0. 0.],-0.001953125,-0.00390625,0.01171875,[0. 0. 0. 0. 0. 0. 0. 0. 0.],-1.9921875,-0.34375,9.61328125,[0. 0. 0. 0. 0. 0. 0. 0. 0.]
1742667059270291962,1742667059,250810055,imu_link,-0.03863525390625,0.096923828125,0.25836181640625,0.96038818359375,[0. 0. 0. 0. 0. 0. 0. 0. 0.],0.0,-0.001953125,0.025390625,[0. 0. 0. 0. 0. 0. 0. 0. 0.],-1.9921875,-0.26953125,9.578125,[0. 0. 0. 0. 0. 0. 0. 0. 0.]
1742667059274972185,1742667059,272717259,imu_link,-0.03863525390625,0.096923828125,0.25836181640625,0.96038818359375,[0. 0. 0. 0. 0. 0. 0. 0. 0.],0.0,-0.001953125,0.025390625,[0. 0. 0. 0. 0. 0. 0. 0. 0.],-1.9921875,-0.26953125,9.578125,[0. 0. 0. 0. 0. 0. 0. 0. 0.]
1742667059301538796,1742667059,290781425,imu_link,-0.03863525390625,0.096923828125,0.25836181640625,0.96038818359375,[0. 0. 0. 0. 0. 0. 0. 0. 0.],0.00390625,0.001953125,0.0078125,[0. 0. 0. 0. 0. 0. 0. 0. 0.],-1.953125,-0.19140625,9.58203125,[0. 0. 0. 0. 0. 0. 0. 0. 0.]
