timestamp,header.stamp.sec,header.stamp.nanosec,header.frame_id,orientation.x,orientation.y,orientation.z,orientation.w,orientation_covariance,angular_velocity.x,angular_velocity.y,angular_velocity.z,angular_velocity_covariance,linear_acceleration.x,linear_acceleration.y,linear_acceleration.z,linear_acceleration_covariance
1742664802599691296,1742664802,578163558,imu_link,-0.01556396484375,0.0982666015625,-0.001220703125,0.99505615234375,[0. 0. 0. 0. 0. 0. 0. 0. 0.],0.0,0.0,0.0,[0. 0. 0. 0. 0. 0. 0. 0. 0.],-1.9140625,-0.3046875,9.58203125,[0. 0. 0. 0. 0. 0. 0. 0. 0.]
1742664802604252492,1742664802,602214759,imu_link,-0.01556396484375,0.0982666015625,-0.001220703125,0.99505615234375,[0. 0. 0. 0. 0. 0. 0. 0. 0.],0.0,0.0,0.0,[0. 0. 0. 0. 0. 0. 0. 0. 0.],-1.9140625,-0.3046875,9.58203125,[0. 0. 0. 0. 0. 0. 0. 0. 0.]
1742664802629860659,1742664802,618101063,imu_link,-0.01556396484375,0.0982666015625,-0.001220703125,0.99505615234375,[0. 0. 0. 0. 0. 0. 0. 0. 0.],0.0,0.0,0.0,[0. 0. 0. 0. 0. 0. 0. 0. 0.],-1.9140625,-0.3046875,9.58203125,[0. 0. 0. 0. 0. 0. 0. 0. 0.]
1742664802652420652,1742664802,638120427,imu_link,-0.01556396484375,0.09820556640625,-0.001220703125,0.99505615234375,[0. 0. 0. 0. 0. 0. 0. 0. 0.],0.0,0.0,0.0,[0. 0. 0. 0. 0. 0. 0. 0. 0.],-1.9140625,-0.3046875,9.58203125,[0. 0. 0. 0. 0. 0. 0. 0. 0.]
1742664802661572452,1742664802,658162773,imu_link,-0.01556396484375,0.09820556640625,-0.001220703125,0.99505615234375,[0. 0. 0. 0. 0. 0. 0. 0. 0.],0.0,0.0,0.0,[0. 0. 0. 0. 0. 0. 0. 0. 0.],-1.9140625,-0.3046875,9.58203125,[0. 0. 0. 0. 0. 0. 0. 0. 0.]
1742664802699115458,1742664802,678294212,imu_link,-0.01556396484375,0.0982666015625,-0.001220703125,0.99505615234375,[0. 0. 0. 0. 0. 0. 0. 0. 0.],0.0,0.0,0.0,[0. 0. 0. 0. 0. 0. 0. 0. 0.],-1.9140625,-0.3046875,9.58203125,[0. 0. 0. 0. 0. 0. 0. 0. 0.]
1742664802708486502,1742664802,704915635,imu_link,-0.01556396484375,0.0982666015625,-0.001220703125,0.99505615234375,[0. 0. 0. 0. 0. 0. 0. 0. 0.],0.0,0.0,0.0,[0. 0. 0. 0. 0. 0. 0. 0. 0.],-1.9140625,-0.3046875,9.58203125,[0. 0. 0. 0. 0. 0. 0. 0. 0.]
1742664802724765830,1742664802,718059307,imu_link,-0.01556396484375,0.0982666015625,-0.001220703125,0.99505615234375,[0. 0. 0. 0. 0. 0. 0. 0. 0.],0.0,0.0,0.0,[0. 0. 0. 0. 0. 0. 0. 0. 0.],-1.9140625,-0.3046875,9.58203125,[0. 0. 0. 0. 0. 0. 0. 0. 0.]
1742664802752220691,1742664802,738131061,imu_link,-0.01556396484375,0.0982666015625,-0.001220703125,0.99505615234375,[0. 0. 0. 0. 0. 0. 0. 0. 0.],0.0,0.0,0.0,[0. 0. 0. 0. 0. 0. 0. 0. 0.],-1.9140625,-0.3046875,9.58203125,[0. 0. 0. 0. 0. 0. 0. 0. 0.]
1742664802761387212,1742664802,758033441,imu_link,-0.01556396484375,0.0982666015625,-0.001220703125,0.99505615234375,[0. 0. 0. 0. 0. 0. 0. 0. 0.],0.0,0.0,0.0,[0. 0. 0. 0. 0. 0. 0. 0. 0.],-1.9140625,-0.3046875,9.58203125,[0. 0. 0. 0. 0. 0. 0. 0. 0.]
1742664802802482511,1742664802,778097454,imu_link,-0.0155029296875,0.0982666015625,-0.001220703125,0.99505615234375,[0. 0. 0. 0. 0. 0. 0. 0. 0.],0.00390625,0.0,0.001953125,[0. 0. 0. 0. 0. 0. 0. 0. 0.],-1.9140625,-0.3046875,9.58203125,[0. 0. 0. 0. 0. 0. 0. 0. 0.]
1742664802807088874,1742664802,804120942,imu_link,-0.0155029296875,0.0982666015625,-0.001220703125,0.99505615234375,[0. 0. 0. 0. 0. 0. 0. 0. 0.],0.00390625,0.0,0.001953125,[0. 0. 0. 0. 0. 0. 0. 0. 0.],-1.9140625,-0.3046875,9.58203125,[0. 0. 0. 0. 0. 0. 0. 0. 0.]
1742664802824662832,1742664802,818020125,imu_link,-0.0155029296875,0.0982666015625,-0.001220703125,0.99505615234375,[0. 0. 0. 0. 0. 0. 0. 0. 0.],0.001953125,-0.001953125,0.0,[0. 0. 0. 0. 0. 0. 0. 0. 0.],-1.9140625,-0.3046875,9.58203125,[0. 0. 0. 0. 0. 0. 0. 0. 0.]
1742664802851985061,1742664802,838117101,imu_link,-0.0155029296875,0.0982666015625,-0.001220703125,0.99505615234375,[0. 0. 0. 0. 0. 0. 0. 0. 0.],0.001953125,-0.001953125,0.0,[0. 0. 0. 0. 0. 0. 0. 0. 0.],-1.9140625,-0.3046875,9.58203125,[0. 0. 0. 0. 0. 0. 0. 0. 0.]
1742664802868251704,1742664802,858109391,imu_link,-0.0155029296875,0.0982666015625,-0.001220703125,0.99505615234375,[0. 0. 0. 0. 0. 0. 0. 0. 0.],0.001953125,-0.001953125,0.0,[0. 0. 0. 0. 0. 0. 0. 0. 0.],-1.9140625,-0.3046875,9.58203125,[0. 0. 0. 0. 0. 0. 0. 0. 0.]
1742664802881448470,1742664802,878060865,imu_link,-0.0155029296875,0.0982666015625,-0.001220703125,0.99505615234375,[0. 0. 0. 0. 0. 0. 0. 0. 0.],-0.001953125,0.0,-0.001953125,[0. 0. 0. 0. 0. 0. 0. 0. 0.],-1.9140625,-0.3046875,9.58203125,[0. 0. 0. 0. 0. 0. 0. 0. 0.]
1742664802912023672,1742664802,898126156,imu_link,-0.0155029296875,0.0982666015625,-0.001220703125,0.99505615234375,[0. 0. 0. 0. 0. 0. 0. 0. 0.],-0.001953125,0.0,-0.001953125,[0. 0. 0. 0. 0. 0. 0. 0. 0.],-1.9140625,-0.3046875,9.58203125,[0. 0. 0. 0. 0. 0. 0. 0. 0.]
1742664802929245773,1742664802,918021481,imu_link,-0.0155029296875,0.0982666015625,-0.001220703125,0.99505615234375,[0. 0. 0. 0. 0. 0. 0. 0. 0.],0.0,-0.001953125,0.0,[0. 0. 0. 0. 0. 0. 0. 0. 0.],-1.9140625,-0.3046875,9.58203125,[0. 0. 0. 0. 0. 0. 0. 0. 0.]
1742664802951263055,1742664802,938118290,imu_link,-0.01556396484375,0.0982666015625,-0.00115966796875,0.99505615234375,[0. 0. 0. 0. 0. 0. 0. 0. 0.],0.0,-0.001953125,0.0,[0. 0. 0. 0. 0. 0. 0. 0. 0.],-1.9140625,-0.3046875,9.58203125,[0. 0. 0. 0. 0. 0. 0. 0. 0.]
1742664802961502629,1742664802,958014579,imu_link,-0.01556396484375,0.0982666015625,-0.00115966796875,0.99505615234375,[0. 0. 0. 0. 0. 0. 0. 0. 0.],0.0,-0.001953125,0.0,[0. 0. 0. 0. 0. 0. 0. 0. 0.],-1.9140625,-0.3046875,9.58203125,[0. 0. 0. 0. 0. 0. 0. 0. 0.]
1742664802984674131,1742664802,978119074,imu_link,-0.01556396484375,0.0982666015625,-0.00115966796875,0.99505615234375,[0. 0. 0. 0. 0. 0. 0. 0. 0.],0.0,0.001953125,0.0,[0. 0. 0. 0. 0. 0. 0. 0. 0.],-1.9140625,-0.3046875,9.58203125,[0. 0. 0. 0. 0. 0. 0. 0. 0.]
1742664803001605969,1742664802,998128141,imu_link,-0.0155029296875,0.09832763671875,-0.00115966796875,0.99505615234375,[0. 0. 0. 0. 0. 0. 0. 0. 0.],0.0,0.001953125,0.0,[0. 0. 0. 0. 0. 0. 0. 0. 0.],-1.9140625,-0.3046875,9.58203125,[0. 0. 0. 0. 0. 0. 0. 0. 0.]
1742664803029433724,1742664803,18037596,imu_link,-0.0155029296875,0.09832763671875,-0.00115966796875,0.99505615234375,[0. 0. 0. 0. 0. 0. 0. 0. 0.],0.001953125,-0.001953125,0.0,[0. 0. 0. 0. 0. 0. 0. 0. 0.],-1.9140625,-0.3046875,9.58203125,[0. 0. 0. 0. 0. 0. 0. 0. 0.]
1742664803054111044,1742664803,38114497,imu_link,-0.0155029296875,0.09832763671875,-0.00115966796875,0.99505615234375,[0. 0. 0. 0. 0. 0. 0. 0. 0.],0.001953125,-0.001953125,0.0,[0. 0. 0. 0. 0. 0. 0. 0. 0.],-1.9140625,-0.3046875,9.58203125,[0. 0. 0. 0. 0. 0. 0. 0. 0.]
1742664803061401594,1742664803,58029100,imu_link,-0.0155029296875,0.09832763671875,-0.00115966796875,0.99505615234375,[0. 0. 0. 0. 0. 0. 0. 0. 0.],0.001953125,-0.001953125,0.0,[0. 0. 0. 0. 0. 0. 0. 0. 0.],-1.9140625,-0.3046875,9.58203125,[0. 0. 0. 0. 0. 0. 0. 0. 0.]
1742664803098452259,1742664803,78121484,imu_link,-0.0155029296875,0.09832763671875,-0.00115966796875,0.99505615234375,[0. 0. 0. 0. 0. 0. 0. 0. 0.],0.0,0.001953125,0.0,[0. 0. 0. 0. 0. 0. 0. 0. 0.],-1.87890625,-0.3046875,9.578125,[0. 0. 0. 0. 0. 0. 0. 0. 0.]
1742664803102861805,1742664803,101051038,imu_link,-0.0155029296875,0.09832763671875,-0.00115966796875,0.99505615234375,[0. 0. 0. 0. 0. 0. 0. 0. 0.],0.0,0.001953125,0.0,[0. 0. 0. 0. 0. 0. 0. 0. 0.],-1.87890625,-0.3046875,9.578125,[0. 0. 0. 0. 0. 0. 0. 0. 0.]
1742664803129591728,1742664803,118091617,imu_link,-0.0155029296875,0.09832763671875,-0.00115966796875,0.99505615234375,[0. 0. 0. 0. 0. 0. 0. 0. 0.],0.0,-0.001953125,0.0,[0. 0. 0. 0. 0. 0. 0. 0. 0.],-1.9140625,-0.3046875,9.58203125,[0. 0. 0. 0. 0. 0. 0. 0. 0.]
1742664803151342395,1742664803,138063721,imu_link,-0.0155029296875,0.0982666015625,-0.00115966796875,0.99505615234375,[0. 0. 0. 0. 0. 0. 0. 0. 0.],0.0,-0.001953125,0.0,[0. 0. 0. 0. 0. 0. 0. 0. 0.],-1.9140625,-0.3046875,9.58203125,[0. 0. 0. 0. 0. 0. 0. 0. 0.]
1742664803161475449,1742664803,158033232,imu_link,-0.0155029296875,0.0982666015625,-0.00115966796875,0.99505615234375,[0. 0. 0. 0. 0. 0. 0. 0. 0.],0.0,-0.001953125,0.0,[0. 0. 0. 0. 0. 0. 0. 0. 0.],-1.9140625,-0.3046875,9.58203125,[0. 0. 0. 0. 0. 0. 0. 0. 0.]
1742664803198586930,1742664803,178297081,imu_link,-0.0155029296875,0.09832763671875,-0.00115966796875,0.99505615234375,[0. 0. 0. 0. 0. 0. 0. 0. 0.],-0.001953125,-0.001953125,-0.001953125,[0. 0. 0. 0. 0. 0. 0. 0. 0.],-1.9140625,-0.3046875,9.58203125,[0. 0. 0. 0. 0. 0. 0. 0. 0.]
1742664803202933419,1742664803,201182801,imu_link,-0.0155029296875,0.09832763671875,-0.00115966796875,0.99505615234375,[0. 0. 0. 0. 0. 0. 0. 0. 0.],-0.001953125,-0.001953125,-0.001953125,[0. 0. 0. 0. 0. 0. 0. 0. 0.],-1.9140625,-0.3046875,9.58203125,[0. 0. 0. 0. 0. 0. 0. 0. 0.]
1742664803229543434,1742664803,218095824,imu_link,-0.0155029296875,0.09832763671875,-0.00115966796875,0.99505615234375,[0. 0. 0. 0. 0. 0. 0. 0. 0.],-0.001953125,-0.001953125,0.0,[0. 0. 0. 0. 0. 0. 0. 0. 0.],-1.9140625,-0.3046875,9.58203125,[0. 0. 0. 0. 0. 0. 0. 0. 0.]
1742664803251408083,1742664803,238062816,imu_link,-0.01556396484375,0.09832763671875,-0.00115966796875,0.99505615234375,[0. 0. 0. 0. 0. 0. 0. 0. 0.],-0.001953125,-0.001953125,0.0,[0. 0. 0. 0. 0. 0. 0. 0. 0.],-1.9140625,-0.3046875,9.58203125,[0. 0. 0. 0. 0. 0. 0. 0. 0.]
1742664803261431506,1742664803,258037735,imu_link,-0.01556396484375,0.09832763671875,-0.00115966796875,0.99505615234375,[0. 0. 0. 0. 0. 0. 0. 0. 0.],-0.001953125,-0.001953125,0.0,[0. 0. 0. 0. 0. 0. 0. 0. 0.],-1.9140625,-0.3046875,9.58203125,[0. 0. 0. 0. 0. 0. 0. 0. 0.]
1742664803299210867,1742664803,278116877,imu_link,-0.01556396484375,0.09832763671875,-0.00115966796875,0.99505615234375,[0. 0. 0. 0. 0. 0. 0. 0. 0.],0.00390625,0.001953125,-0.00390625,[0. 0. 0. 0. 0. 0. 0. 0. 0.],-1.9140625,-0.3046875,9.54296875,[0. 0. 0. 0. 0. 0. 0. 0. 0.]
1742664803307736194,1742664803,304441591,imu_link,-0.01556396484375,0.09832763671875,-0.00115966796875,0.99505615234375,[0. 0. 0. 0. 0. 0. 0. 0. 0.],0.00390625,0.001953125,-0.00390625,[0. 0. 0. 0. 0. 0. 0. 0. 0.],-1.9140625,-0.3046875,9.58203125,[0. 0. 0. 0. 0. 0. 0. 0. 0.]
1742664803324678162,1742664803,318013862,imu_link,-0.01556396484375,0.09832763671875,-0.00115966796875,0.99505615234375,[0. 0. 0. 0. 0. 0. 0. 0. 0.],0.001953125,0.001953125,0.0,[0. 0. 0. 0. 0. 0. 0. 0. 0.],-1.9140625,-0.3046875,9.58203125,[0. 0. 0. 0. 0. 0. 0. 0. 0.]
1742664803351360289,1742664803,338082374,imu_link,-0.01556396484375,0.09832763671875,-0.00115966796875,0.99505615234375,[0. 0. 0. 0. 0. 0. 0. 0. 0.],0.001953125,0.001953125,0.0,[0. 0. 0. 0. 0. 0. 0. 0. 0.],-1.9140625,-0.3046875,9.58203125,[0. 0. 0. 0. 0. 0. 0. 0. 0.]
1742664803361627307,1742664803,358083238,imu_link,-0.01556396484375,0.09832763671875,-0.00115966796875,0.99505615234375,[0. 0. 0. 0. 0. 0. 0. 0. 0.],0.001953125,0.001953125,0.0,[0. 0. 0. 0. 0. 0. 0. 0. 0.],-1.9140625,-0.3046875,9.58203125,[0. 0. 0. 0. 0. 0. 0. 0. 0.]
1742664803401522533,1742664803,378117713,imu_link,-0.01556396484375,0.09832763671875,-0.00115966796875,0.99505615234375,[0. 0. 0. 0. 0. 0. 0. 0. 0.],-0.001953125,0.0,-0.001953125,[0. 0. 0. 0. 0. 0. 0. 0. 0.],-1.9140625,-0.3046875,9.58203125,[0. 0. 0. 0. 0. 0. 0. 0. 0.]
1742664803405598425,1742664803,403130186,imu_link,-0.01556396484375,0.09832763671875,-0.00115966796875,0.99505615234375,[0. 0. 0. 0. 0. 0. 0. 0. 0.],-0.001953125,0.0,-0.001953125,[0. 0. 0. 0. 0. 0. 0. 0. 0.],-1.9140625,-0.3046875,9.54296875,[0. 0. 0. 0. 0. 0. 0. 0. 0.]
1742664803423808633,1742664803,418037512,imu_link,-0.01556396484375,0.09832763671875,-0.00115966796875,0.99505615234375,[0. 0. 0. 0. 0. 0. 0. 0. 0.],0.0,0.00390625,0.0,[0. 0. 0. 0. 0. 0. 0. 0. 0.],-1.9140625,-0.3046875,9.54296875,[0. 0. 0. 0. 0. 0. 0. 0. 0.]
1742664803450347313,1742664803,438041709,imu_link,-0.0155029296875,0.098388671875,-0.00115966796875,0.99505615234375,[0. 0. 0. 0. 0. 0. 0. 0. 0.],0.0,0.00390625,0.0,[0. 0. 0. 0. 0. 0. 0. 0. 0.],-1.9140625,-0.3046875,9.58203125,[0. 0. 0. 0. 0. 0. 0. 0. 0.]
1742664803468083625,1742664803,458026628,imu_link,-0.0155029296875,0.098388671875,-0.00115966796875,0.99505615234375,[0. 0. 0. 0. 0. 0. 0. 0. 0.],0.0,0.0,-0.001953125,[0. 0. 0. 0. 0. 0. 0. 0. 0.],-1.9140625,-0.3046875,9.58203125,[0. 0. 0. 0. 0. 0. 0. 0. 0.]
1742664803480919774,1742664803,478108104,imu_link,-0.0155029296875,0.098388671875,-0.00115966796875,0.99505615234375,[0. 0. 0. 0. 0. 0. 0. 0. 0.],0.0,0.0,-0.001953125,[0. 0. 0. 0. 0. 0. 0. 0. 0.],-1.9140625,-0.3046875,9.58203125,[0. 0. 0. 0. 0. 0. 0. 0. 0.]
1742664803511038895,1742664803,498290618,imu_link,-0.0155029296875,0.098388671875,-0.00115966796875,0.99505615234375,[0. 0. 0. 0. 0. 0. 0. 0. 0.],0.0,0.0,-0.001953125,[0. 0. 0. 0. 0. 0. 0. 0. 0.],-1.9140625,-0.3046875,9.58203125,[0. 0. 0. 0. 0. 0. 0. 0. 0.]
1742664803528004566,1742664803,518066237,imu_link,-0.0155029296875,0.098388671875,-0.00115966796875,0.99505615234375,[0. 0. 0. 0. 0. 0. 0. 0. 0.],-0.00390625,0.001953125,-0.001953125,[0. 0. 0. 0. 0. 0. 0. 0. 0.],-1.9140625,-0.3046875,9.58203125,[0. 0. 0. 0. 0. 0. 0. 0. 0.]
1742664803550356167,1742664803,538089620,imu_link,-0.01556396484375,0.098388671875,-0.00115966796875,0.99505615234375,[0. 0. 0. 0. 0. 0. 0. 0. 0.],-0.00390625,0.001953125,-0.001953125,[0. 0. 0. 0. 0. 0. 0. 0. 0.],-1.9140625,-0.3046875,9.58203125,[0. 0. 0. 0. 0. 0. 0. 0. 0.]
1742664803568977437,1742664803,558059297,imu_link,-0.01556396484375,0.098388671875,-0.00115966796875,0.99505615234375,[0. 0. 0. 0. 0. 0. 0. 0. 0.],0.0,0.0,0.001953125,[0. 0. 0. 0. 0. 0. 0. 0. 0.],-1.9140625,-0.3046875,9.58203125,[0. 0. 0. 0. 0. 0. 0. 0. 0.]
1742664803580880479,1742664803,578114347,imu_link,-0.01556396484375,0.098388671875,-0.00115966796875,0.99505615234375,[0. 0. 0. 0. 0. 0. 0. 0. 0.],0.0,0.0,0.001953125,[0. 0. 0. 0. 0. 0. 0. 0. 0.],-1.9140625,-0.3046875,9.58203125,[0. 0. 0. 0. 0. 0. 0. 0. 0.]
1742664803611465089,1742664803,598115340,imu_link,-0.01556396484375,0.098388671875,-0.00115966796875,0.9949951171875,[0. 0. 0. 0. 0. 0. 0. 0. 0.],0.0,0.0,0.001953125,[0. 0. 0. 0. 0. 0. 0. 0. 0.],-1.9140625,-0.3046875,9.58203125,[0. 0. 0. 0. 0. 0. 0. 0. 0.]
1742664803628336629,1742664803,618067758,imu_link,-0.01556396484375,0.098388671875,-0.00115966796875,0.9949951171875,[0. 0. 0. 0. 0. 0. 0. 0. 0.],-0.001953125,-0.001953125,0.0,[0. 0. 0. 0. 0. 0. 0. 0. 0.],-1.9140625,-0.3046875,9.58203125,[0. 0. 0. 0. 0. 0. 0. 0. 0.]
1742664803653520456,1742664803,638077177,imu_link,-0.01556396484375,0.098388671875,-0.00115966796875,0.99505615234375,[0. 0. 0. 0. 0. 0. 0. 0. 0.],-0.001953125,-0.001953125,0.0,[0. 0. 0. 0. 0. 0. 0. 0. 0.],-1.9140625,-0.3046875,9.58203125,[0. 0. 0. 0. 0. 0. 0. 0. 0.]
1742664803660888600,1742664803,658024873,imu_link,-0.01556396484375,0.098388671875,-0.00115966796875,0.99505615234375,[0. 0. 0. 0. 0. 0. 0. 0. 0.],-0.001953125,-0.001953125,0.0,[0. 0. 0. 0. 0. 0. 0. 0. 0.],-1.9140625,-0.3046875,9.58203125,[0. 0. 0. 0. 0. 0. 0. 0. 0.]
1742664803697940340,1742664803,678280759,imu_link,-0.01556396484375,0.098388671875,-0.00115966796875,0.9949951171875,[0. 0. 0. 0. 0. 0. 0. 0. 0.],0.0,0.001953125,0.0,[0. 0. 0. 0. 0. 0. 0. 0. 0.],-1.9140625,-0.3046875,9.58203125,[0. 0. 0. 0. 0. 0. 0. 0. 0.]
1742664803702264013,1742664803,700579933,imu_link,-0.01556396484375,0.098388671875,-0.00115966796875,0.9949951171875,[0. 0. 0. 0. 0. 0. 0. 0. 0.],0.0,0.001953125,0.0,[0. 0. 0. 0. 0. 0. 0. 0. 0.],-1.9140625,-0.3046875,9.58203125,[0. 0. 0. 0. 0. 0. 0. 0. 0.]
1742664803728752656,1742664803,718101205,imu_link,-0.01556396484375,0.098388671875,-0.00115966796875,0.9949951171875,[0. 0. 0. 0. 0. 0. 0. 0. 0.],0.0,0.001953125,0.0,[0. 0. 0. 0. 0. 0. 0. 0. 0.],-1.9140625,-0.3046875,9.58203125,[0. 0. 0. 0. 0. 0. 0. 0. 0.]
1742664803753528977,1742664803,738051383,imu_link,-0.0155029296875,0.09844970703125,-0.00115966796875,0.9949951171875,[0. 0. 0. 0. 0. 0. 0. 0. 0.],0.0,0.001953125,0.0,[0. 0. 0. 0. 0. 0. 0. 0. 0.],-1.9140625,-0.3046875,9.58203125,[0. 0. 0. 0. 0. 0. 0. 0. 0.]
1742664803760739137,1742664803,758015524,imu_link,-0.0155029296875,0.09844970703125,-0.00115966796875,0.9949951171875,[0. 0. 0. 0. 0. 0. 0. 0. 0.],0.0,0.001953125,0.0,[0. 0. 0. 0. 0. 0. 0. 0. 0.],-1.9140625,-0.3046875,9.58203125,[0. 0. 0. 0. 0. 0. 0. 0. 0.]
1742664803796788659,1742664803,778119407,imu_link,-0.0155029296875,0.09844970703125,-0.00115966796875,0.9949951171875,[0. 0. 0. 0. 0. 0. 0. 0. 0.],0.001953125,0.0,-0.001953125,[0. 0. 0. 0. 0. 0. 0. 0. 0.],-1.9140625,-0.3046875,9.58203125,[0. 0. 0. 0. 0. 0. 0. 0. 0.]
1742664803801507245,1742664803,799437438,imu_link,-0.0155029296875,0.09844970703125,-0.00115966796875,0.9949951171875,[0. 0. 0. 0. 0. 0. 0. 0. 0.],0.001953125,0.0,-0.001953125,[0. 0. 0. 0. 0. 0. 0. 0. 0.],-1.9140625,-0.3046875,9.58203125,[0. 0. 0. 0. 0. 0. 0. 0. 0.]
1742664803829364834,1742664803,818607826,imu_link,-0.0155029296875,0.09844970703125,-0.00115966796875,0.9949951171875,[0. 0. 0. 0. 0. 0. 0. 0. 0.],0.0,-0.001953125,0.0,[0. 0. 0. 0. 0. 0. 0. 0. 0.],-1.9140625,-0.3046875,9.58203125,[0. 0. 0. 0. 0. 0. 0. 0. 0.]
1742664803850930016,1742664803,838081126,imu_link,-0.01556396484375,0.09844970703125,-0.00115966796875,0.9949951171875,[0. 0. 0. 0. 0. 0. 0. 0. 0.],0.0,-0.001953125,0.0,[0. 0. 0. 0. 0. 0. 0. 0. 0.],-1.9140625,-0.3046875,9.58203125,[0. 0. 0. 0. 0. 0. 0. 0. 0.]
1742664803860668138,1742664803,858284141,imu_link,-0.01556396484375,0.09844970703125,-0.00115966796875,0.9949951171875,[0. 0. 0. 0. 0. 0. 0. 0. 0.],0.0,-0.001953125,0.0,[0. 0. 0. 0. 0. 0. 0. 0. 0.],-1.9140625,-0.3046875,9.58203125,[0. 0. 0. 0. 0. 0. 0. 0. 0.]
1742664803897316761,1742664803,878127409,imu_link,-0.01556396484375,0.0985107421875,-0.00115966796875,0.9949951171875,[0. 0. 0. 0. 0. 0. 0. 0. 0.],-0.001953125,0.0,0.0,[0. 0. 0. 0. 0. 0. 0. 0. 0.],-1.9140625,-0.3046875,9.58203125,[0. 0. 0. 0. 0. 0. 0. 0. 0.]
1742664803906644841,1742664803,903193698,imu_link,-0.01556396484375,0.0985107421875,-0.00115966796875,0.9949951171875,[0. 0. 0. 0. 0. 0. 0. 0. 0.],-0.001953125,0.0,0.0,[0. 0. 0. 0. 0. 0. 0. 0. 0.],-1.9140625,-0.3046875,9.58203125,[0. 0. 0. 0. 0. 0. 0. 0. 0.]
1742664803923917739,1742664803,918112858,imu_link,-0.01556396484375,0.0985107421875,-0.00115966796875,0.9949951171875,[0. 0. 0. 0. 0. 0. 0. 0. 0.],0.0,0.0,0.0,[0. 0. 0. 0. 0. 0. 0. 0. 0.],-1.9140625,-0.3046875,9.58203125,[0. 0. 0. 0. 0. 0. 0. 0. 0.]
1742664803950030042,1742664803,938115092,imu_link,-0.01556396484375,0.0985107421875,-0.00115966796875,0.9949951171875,[0. 0. 0. 0. 0. 0. 0. 0. 0.],0.0,0.0,0.0,[0. 0. 0. 0. 0. 0. 0. 0. 0.],-1.9140625,-0.3046875,9.58203125,[0. 0. 0. 0. 0. 0. 0. 0. 0.]
1742664803960794013,1742664803,958033177,imu_link,-0.01556396484375,0.0985107421875,-0.00115966796875,0.9949951171875,[0. 0. 0. 0. 0. 0. 0. 0. 0.],0.0,0.0,0.0,[0. 0. 0. 0. 0. 0. 0. 0. 0.],-1.9140625,-0.3046875,9.58203125,[0. 0. 0. 0. 0. 0. 0. 0. 0.]
1742664803993856084,1742664803,978129782,imu_link,-0.01556396484375,0.09844970703125,-0.00115966796875,0.9949951171875,[0. 0. 0. 0. 0. 0. 0. 0. 0.],0.0,0.0,0.0,[0. 0. 0. 0. 0. 0. 0. 0. 0.],-1.9140625,-0.3046875,9.58203125,[0. 0. 0. 0. 0. 0. 0. 0. 0.]
1742664804002633896,1742664804,786036,imu_link,-0.01556396484375,0.09844970703125,-0.00115966796875,0.9949951171875,[0. 0. 0. 0. 0. 0. 0. 0. 0.],0.0,0.0,0.0,[0. 0. 0. 0. 0. 0. 0. 0. 0.],-1.9140625,-0.3046875,9.58203125,[0. 0. 0. 0. 0. 0. 0. 0. 0.]
1742664804023849554,1742664804,18111712,imu_link,-0.01556396484375,0.09844970703125,-0.00115966796875,0.9949951171875,[0. 0. 0. 0. 0. 0. 0. 0. 0.],0.0,0.0,0.0,[0. 0. 0. 0. 0. 0. 0. 0. 0.],-1.9140625,-0.3046875,9.58203125,[0. 0. 0. 0. 0. 0. 0. 0. 0.]
1742664804050692220,1742664804,38091168,imu_link,-0.01556396484375,0.09844970703125,-0.00115966796875,0.9949951171875,[0. 0. 0. 0. 0. 0. 0. 0. 0.],0.0,0.0,0.0,[0. 0. 0. 0. 0. 0. 0. 0. 0.],-1.9140625,-0.3046875,9.58203125,[0. 0. 0. 0. 0. 0. 0. 0. 0.]
1742664804068704091,1742664804,58026159,imu_link,-0.01556396484375,0.09844970703125,-0.00115966796875,0.9949951171875,[0. 0. 0. 0. 0. 0. 0. 0. 0.],0.0,0.0,0.0,[0. 0. 0. 0. 0. 0. 0. 0. 0.],-1.9140625,-0.3046875,9.54296875,[0. 0. 0. 0. 0. 0. 0. 0. 0.]
1742664804080560522,1742664804,78059004,imu_link,-0.01556396484375,0.09844970703125,-0.00115966796875,0.9949951171875,[0. 0. 0. 0. 0. 0. 0. 0. 0.],0.0,0.0,0.0,[0. 0. 0. 0. 0. 0. 0. 0. 0.],-1.9140625,-0.3046875,9.54296875,[0. 0. 0. 0. 0. 0. 0. 0. 0.]
1742664804111148316,1742664804,98098461,imu_link,-0.01556396484375,0.09844970703125,-0.00115966796875,0.9949951171875,[0. 0. 0. 0. 0. 0. 0. 0. 0.],0.0,0.0,0.0,[0. 0. 0. 0. 0. 0. 0. 0. 0.],-1.9140625,-0.3046875,9.58203125,[0. 0. 0. 0. 0. 0. 0. 0. 0.]
1742664804120479025,1742664804,118016785,imu_link,-0.01556396484375,0.09844970703125,-0.00115966796875,0.9949951171875,[0. 0. 0. 0. 0. 0. 0. 0. 0.],0.0,0.0,0.0,[0. 0. 0. 0. 0. 0. 0. 0. 0.],-1.9140625,-0.3046875,9.58203125,[0. 0. 0. 0. 0. 0. 0. 0. 0.]
1742664804152053851,1742664804,138098150,imu_link,-0.01556396484375,0.09844970703125,-0.00115966796875,0.9949951171875,[0. 0. 0. 0. 0. 0. 0. 0. 0.],0.0,0.0,0.0,[0. 0. 0. 0. 0. 0. 0. 0. 0.],-1.9140625,-0.3046875,9.58203125,[0. 0. 0. 0. 0. 0. 0. 0. 0.]
1742664804169880887,1742664804,158038327,imu_link,-0.01556396484375,0.09844970703125,-0.00115966796875,0.9949951171875,[0. 0. 0. 0. 0. 0. 0. 0. 0.],0.0,0.0,0.0,[0. 0. 0. 0. 0. 0. 0. 0. 0.],-1.9140625,-0.3046875,9.58203125,[0. 0. 0. 0. 0. 0. 0. 0. 0.]
1742664804180374242,1742664804,178142154,imu_link,-0.01556396484375,0.09844970703125,-0.00115966796875,0.9949951171875,[0. 0. 0. 0. 0. 0. 0. 0. 0.],0.0,0.0,0.0,[0. 0. 0. 0. 0. 0. 0. 0. 0.],-1.9140625,-0.3046875,9.58203125,[0. 0. 0. 0. 0. 0. 0. 0. 0.]
1742664804214590551,1742664804,198089794,imu_link,-0.01556396484375,0.09844970703125,-0.00115966796875,0.9949951171875,[0. 0. 0. 0. 0. 0. 0. 0. 0.],0.0,0.0,0.0,[0. 0. 0. 0. 0. 0. 0. 0. 0.],-1.9140625,-0.3046875,9.58203125,[0. 0. 0. 0. 0. 0. 0. 0. 0.]
1742664804224646604,1742664804,221679969,imu_link,-0.01556396484375,0.09844970703125,-0.00115966796875,0.9949951171875,[0. 0. 0. 0. 0. 0. 0. 0. 0.],0.0,0.0,-0.001953125,[0. 0. 0. 0. 0. 0. 0. 0. 0.],-1.9140625,-0.3046875,9.58203125,[0. 0. 0. 0. 0. 0. 0. 0. 0.]
1742664804254810984,1742664804,238038538,imu_link,-0.01556396484375,0.09844970703125,-0.00115966796875,0.9949951171875,[0. 0. 0. 0. 0. 0. 0. 0. 0.],0.0,0.0,-0.001953125,[0. 0. 0. 0. 0. 0. 0. 0. 0.],-1.9140625,-0.3046875,9.58203125,[0. 0. 0. 0. 0. 0. 0. 0. 0.]
1742664804260137932,1742664804,258021920,imu_link,-0.01556396484375,0.09844970703125,-0.00115966796875,0.9949951171875,[0. 0. 0. 0. 0. 0. 0. 0. 0.],0.0,0.0,-0.001953125,[0. 0. 0. 0. 0. 0. 0. 0. 0.],-1.9140625,-0.3046875,9.58203125,[0. 0. 0. 0. 0. 0. 0. 0. 0.]
1742664804295657408,1742664804,278106062,imu_link,-0.01556396484375,0.09844970703125,-0.00115966796875,0.9949951171875,[0. 0. 0. 0. 0. 0. 0. 0. 0.],0.0,-0.00390625,0.0,[0. 0. 0. 0. 0. 0. 0. 0. 0.],-1.9140625,-0.3046875,9.58203125,[0. 0. 0. 0. 0. 0. 0. 0. 0.]
1742664804301284767,1742664804,298880732,imu_link,-0.01556396484375,0.09844970703125,-0.00115966796875,0.9949951171875,[0. 0. 0. 0. 0. 0. 0. 0. 0.],0.0,-0.00390625,0.0,[0. 0. 0. 0. 0. 0. 0. 0. 0.],-1.9140625,-0.3046875,9.58203125,[0. 0. 0. 0. 0. 0. 0. 0. 0.]
1742664804329651381,1742664804,318205549,imu_link,-0.01556396484375,0.09844970703125,-0.00115966796875,0.9949951171875,[0. 0. 0. 0. 0. 0. 0. 0. 0.],0.0,-0.001953125,0.0,[0. 0. 0. 0. 0. 0. 0. 0. 0.],-1.87890625,-0.3046875,9.578125,[0. 0. 0. 0. 0. 0. 0. 0. 0.]
1742664804355057192,1742664804,338049891,imu_link,-0.0155029296875,0.09844970703125,-0.00115966796875,0.9949951171875,[0. 0. 0. 0. 0. 0. 0. 0. 0.],0.0,-0.001953125,0.0,[0. 0. 0. 0. 0. 0. 0. 0. 0.],-1.9140625,-0.3046875,9.58203125,[0. 0. 0. 0. 0. 0. 0. 0. 0.]
1742664804360159599,1742664804,358036958,imu_link,-0.0155029296875,0.09844970703125,-0.00115966796875,0.9949951171875,[0. 0. 0. 0. 0. 0. 0. 0. 0.],0.0,-0.001953125,0.0,[0. 0. 0. 0. 0. 0. 0. 0. 0.],-1.9140625,-0.3046875,9.58203125,[0. 0. 0. 0. 0. 0. 0. 0. 0.]
1742664804395534000,1742664804,378117600,imu_link,-0.0155029296875,0.09844970703125,-0.001220703125,0.9949951171875,[0. 0. 0. 0. 0. 0. 0. 0. 0.],0.001953125,0.001953125,-0.001953125,[0. 0. 0. 0. 0. 0. 0. 0. 0.],-1.9140625,-0.3046875,9.58203125,[0. 0. 0. 0. 0. 0. 0. 0. 0.]
1742664804400223678,1742664804,398123241,imu_link,-0.0155029296875,0.09844970703125,-0.001220703125,0.9949951171875,[0. 0. 0. 0. 0. 0. 0. 0. 0.],0.001953125,0.001953125,-0.001953125,[0. 0. 0. 0. 0. 0. 0. 0. 0.],-1.9140625,-0.3046875,9.58203125,[0. 0. 0. 0. 0. 0. 0. 0. 0.]
1742664804429274839,1742664804,418123937,imu_link,-0.0155029296875,0.09844970703125,-0.001220703125,0.9949951171875,[0. 0. 0. 0. 0. 0. 0. 0. 0.],0.0,0.0,-0.001953125,[0. 0. 0. 0. 0. 0. 0. 0. 0.],-1.9140625,-0.3046875,9.58203125,[0. 0. 0. 0. 0. 0. 0. 0. 0.]
1742664804451146748,1742664804,438046299,imu_link,-0.0155029296875,0.098388671875,-0.001220703125,0.99505615234375,[0. 0. 0. 0. 0. 0. 0. 0. 0.],0.0,0.0,-0.001953125,[0. 0. 0. 0. 0. 0. 0. 0. 0.],-1.9140625,-0.3046875,9.58203125,[0. 0. 0. 0. 0. 0. 0. 0. 0.]
1742664804460046728,1742664804,458030866,imu_link,-0.0155029296875,0.098388671875,-0.001220703125,0.99505615234375,[0. 0. 0. 0. 0. 0. 0. 0. 0.],0.0,0.0,-0.001953125,[0. 0. 0. 0. 0. 0. 0. 0. 0.],-1.9140625,-0.3046875,9.58203125,[0. 0. 0. 0. 0. 0. 0. 0. 0.]
1742664804495371979,1742664804,478124100,imu_link,-0.0155029296875,0.098388671875,-0.001220703125,0.99505615234375,[0. 0. 0. 0. 0. 0. 0. 0. 0.],0.001953125,0.0,0.00390625,[0. 0. 0. 0. 0. 0. 0. 0. 0.],-1.9140625,-0.3046875,9.58203125,[0. 0. 0. 0. 0. 0. 0. 0. 0.]
1742664804500387552,1742664804,498178483,imu_link,-0.0155029296875,0.098388671875,-0.001220703125,0.99505615234375,[0. 0. 0. 0. 0. 0. 0. 0. 0.],0.001953125,0.0,0.00390625,[0. 0. 0. 0. 0. 0. 0. 0. 0.],-1.9140625,-0.3046875,9.58203125,[0. 0. 0. 0. 0. 0. 0. 0. 0.]
1742664804524706848,1742664804,518176383,imu_link,-0.0155029296875,0.098388671875,-0.001220703125,0.99505615234375,[0. 0. 0. 0. 0. 0. 0. 0. 0.],-0.005859375,0.001953125,0.0,[0. 0. 0. 0. 0. 0. 0. 0. 0.],-1.9140625,-0.3046875,9.58203125,[0. 0. 0. 0. 0. 0. 0. 0. 0.]
1742664804550983116,1742664804,538122097,imu_link,-0.0155029296875,0.09832763671875,-0.00115966796875,0.99505615234375,[0. 0. 0. 0. 0. 0. 0. 0. 0.],-0.005859375,0.001953125,0.0,[0. 0. 0. 0. 0. 0. 0. 0. 0.],-1.9140625,-0.3046875,9.58203125,[0. 0. 0. 0. 0. 0. 0. 0. 0.]
1742664804559846800,1742664804,558020496,imu_link,-0.0155029296875,0.09832763671875,-0.00115966796875,0.99505615234375,[0. 0. 0. 0. 0. 0. 0. 0. 0.],-0.005859375,0.001953125,0.0,[0. 0. 0. 0. 0. 0. 0. 0. 0.],-1.9140625,-0.3046875,9.58203125,[0. 0. 0. 0. 0. 0. 0. 0. 0.]
1742664804594058294,1742664804,578134620,imu_link,-0.0155029296875,0.09832763671875,-0.00115966796875,0.99505615234375,[0. 0. 0. 0. 0. 0. 0. 0. 0.],-0.001953125,-0.00390625,-0.001953125,[0. 0. 0. 0. 0. 0. 0. 0. 0.],-1.87890625,-0.3046875,9.578125,[0. 0. 0. 0. 0. 0. 0. 0. 0.]
1742664804603869714,1742664804,600851670,imu_link,-0.0155029296875,0.09832763671875,-0.00115966796875,0.99505615234375,[0. 0. 0. 0. 0. 0. 0. 0. 0.],-0.001953125,-0.00390625,-0.001953125,[0. 0. 0. 0. 0. 0. 0. 0. 0.],-1.9140625,-0.3046875,9.58203125,[0. 0. 0. 0. 0. 0. 0. 0. 0.]
1742664804624653144,1742664804,618207199,imu_link,-0.0155029296875,0.09832763671875,-0.00115966796875,0.99505615234375,[0. 0. 0. 0. 0. 0. 0. 0. 0.],0.0,0.0,0.0,[0. 0. 0. 0. 0. 0. 0. 0. 0.],-1.9140625,-0.3046875,9.58203125,[0. 0. 0. 0. 0. 0. 0. 0. 0.]
1742664804649863434,1742664804,638079782,imu_link,-0.0155029296875,0.09832763671875,-0.001220703125,0.99505615234375,[0. 0. 0. 0. 0. 0. 0. 0. 0.],0.0,0.0,0.0,[0. 0. 0. 0. 0. 0. 0. 0. 0.],-1.87890625,-0.3046875,9.578125,[0. 0. 0. 0. 0. 0. 0. 0. 0.]
1742664804668620372,1742664804,658024793,imu_link,-0.0155029296875,0.09832763671875,-0.001220703125,0.99505615234375,[0. 0. 0. 0. 0. 0. 0. 0. 0.],-0.001953125,0.0,0.0,[0. 0. 0. 0. 0. 0. 0. 0. 0.],-1.9140625,-0.3046875,9.54296875,[0. 0. 0. 0. 0. 0. 0. 0. 0.]
1742664804679930498,1742664804,678073657,imu_link,-0.0155029296875,0.09832763671875,-0.001220703125,0.99505615234375,[0. 0. 0. 0. 0. 0. 0. 0. 0.],-0.001953125,0.0,0.0,[0. 0. 0. 0. 0. 0. 0. 0. 0.],-1.9140625,-0.3046875,9.54296875,[0. 0. 0. 0. 0. 0. 0. 0. 0.]
1742664804710986206,1742664804,698086612,imu_link,-0.0155029296875,0.09832763671875,-0.001220703125,0.99505615234375,[0. 0. 0. 0. 0. 0. 0. 0. 0.],-0.001953125,0.0,0.0,[0. 0. 0. 0. 0. 0. 0. 0. 0.],-1.9140625,-0.3046875,9.58203125,[0. 0. 0. 0. 0. 0. 0. 0. 0.]
1742664804719798019,1742664804,718075216,imu_link,-0.0155029296875,0.09832763671875,-0.001220703125,0.99505615234375,[0. 0. 0. 0. 0. 0. 0. 0. 0.],0.0,-0.001953125,-0.001953125,[0. 0. 0. 0. 0. 0. 0. 0. 0.],-1.9140625,-0.3046875,9.58203125,[0. 0. 0. 0. 0. 0. 0. 0. 0.]
1742664804749842379,1742664804,738088968,imu_link,-0.01556396484375,0.0982666015625,-0.001220703125,0.99505615234375,[0. 0. 0. 0. 0. 0. 0. 0. 0.],0.0,-0.001953125,-0.001953125,[0. 0. 0. 0. 0. 0. 0. 0. 0.],-1.9140625,-0.3046875,9.58203125,[0. 0. 0. 0. 0. 0. 0. 0. 0.]
1742664804768515334,1742664804,758022497,imu_link,-0.01556396484375,0.0982666015625,-0.001220703125,0.99505615234375,[0. 0. 0. 0. 0. 0. 0. 0. 0.],-0.001953125,-0.001953125,-0.001953125,[0. 0. 0. 0. 0. 0. 0. 0. 0.],-1.9140625,-0.3046875,9.58203125,[0. 0. 0. 0. 0. 0. 0. 0. 0.]
1742664804779789608,1742664804,778041009,imu_link,-0.01556396484375,0.0982666015625,-0.001220703125,0.99505615234375,[0. 0. 0. 0. 0. 0. 0. 0. 0.],-0.001953125,-0.001953125,-0.001953125,[0. 0. 0. 0. 0. 0. 0. 0. 0.],-1.9140625,-0.3046875,9.58203125,[0. 0. 0. 0. 0. 0. 0. 0. 0.]
1742664804814388478,1742664804,798087780,imu_link,-0.01556396484375,0.0982666015625,-0.001220703125,0.99505615234375,[0. 0. 0. 0. 0. 0. 0. 0. 0.],-0.001953125,-0.001953125,-0.001953125,[0. 0. 0. 0. 0. 0. 0. 0. 0.],-1.87890625,-0.3046875,9.578125,[0. 0. 0. 0. 0. 0. 0. 0. 0.]
1742664804824969390,1742664804,821546804,imu_link,-0.01556396484375,0.0982666015625,-0.001220703125,0.99505615234375,[0. 0. 0. 0. 0. 0. 0. 0. 0.],-0.001953125,0.0,-0.001953125,[0. 0. 0. 0. 0. 0. 0. 0. 0.],-1.9140625,-0.3046875,9.58203125,[0. 0. 0. 0. 0. 0. 0. 0. 0.]
1742664804853654360,1742664804,838077784,imu_link,-0.01556396484375,0.0982666015625,-0.001220703125,0.99505615234375,[0. 0. 0. 0. 0. 0. 0. 0. 0.],-0.001953125,0.0,-0.001953125,[0. 0. 0. 0. 0. 0. 0. 0. 0.],-1.9140625,-0.3046875,9.58203125,[0. 0. 0. 0. 0. 0. 0. 0. 0.]
1742664804859933210,1742664804,858068072,imu_link,-0.01556396484375,0.0982666015625,-0.001220703125,0.99505615234375,[0. 0. 0. 0. 0. 0. 0. 0. 0.],-0.001953125,0.0,-0.001953125,[0. 0. 0. 0. 0. 0. 0. 0. 0.],-1.9140625,-0.3046875,9.58203125,[0. 0. 0. 0. 0. 0. 0. 0. 0.]
1742664804892546182,1742664804,878132214,imu_link,-0.015625,0.0982666015625,-0.001220703125,0.99505615234375,[0. 0. 0. 0. 0. 0. 0. 0. 0.],0.0,0.0,-0.001953125,[0. 0. 0. 0. 0. 0. 0. 0. 0.],-1.9140625,-0.3046875,9.58203125,[0. 0. 0. 0. 0. 0. 0. 0. 0.]
1742664804899939085,1742664804,898023946,imu_link,-0.015625,0.0982666015625,-0.001220703125,0.99505615234375,[0. 0. 0. 0. 0. 0. 0. 0. 0.],0.0,0.0,-0.001953125,[0. 0. 0. 0. 0. 0. 0. 0. 0.],-1.9140625,-0.3046875,9.58203125,[0. 0. 0. 0. 0. 0. 0. 0. 0.]
1742664804928748409,1742664804,918117162,imu_link,-0.015625,0.0982666015625,-0.001220703125,0.99505615234375,[0. 0. 0. 0. 0. 0. 0. 0. 0.],0.0,0.001953125,0.001953125,[0. 0. 0. 0. 0. 0. 0. 0. 0.],-1.9140625,-0.3046875,9.58203125,[0. 0. 0. 0. 0. 0. 0. 0. 0.]
1742664804950166940,1742664804,938076192,imu_link,-0.015625,0.0982666015625,-0.001220703125,0.99505615234375,[0. 0. 0. 0. 0. 0. 0. 0. 0.],0.0,0.001953125,0.001953125,[0. 0. 0. 0. 0. 0. 0. 0. 0.],-1.9140625,-0.3046875,9.58203125,[0. 0. 0. 0. 0. 0. 0. 0. 0.]
1742664804959754431,1742664804,958042332,imu_link,-0.015625,0.0982666015625,-0.001220703125,0.99505615234375,[0. 0. 0. 0. 0. 0. 0. 0. 0.],0.0,0.001953125,0.001953125,[0. 0. 0. 0. 0. 0. 0. 0. 0.],-1.9140625,-0.3046875,9.58203125,[0. 0. 0. 0. 0. 0. 0. 0. 0.]
1742664804993056116,1742664804,978101159,imu_link,-0.015625,0.09820556640625,-0.001220703125,0.99505615234375,[0. 0. 0. 0. 0. 0. 0. 0. 0.],0.0,-0.001953125,0.0,[0. 0. 0. 0. 0. 0. 0. 0. 0.],-1.9140625,-0.3046875,9.58203125,[0. 0. 0. 0. 0. 0. 0. 0. 0.]
1742664805000072810,1742664804,998154486,imu_link,-0.015625,0.09820556640625,-0.001220703125,0.99505615234375,[0. 0. 0. 0. 0. 0. 0. 0. 0.],0.0,-0.001953125,0.0,[0. 0. 0. 0. 0. 0. 0. 0. 0.],-1.9140625,-0.3046875,9.58203125,[0. 0. 0. 0. 0. 0. 0. 0. 0.]
1742664805028584240,1742664805,18125385,imu_link,-0.015625,0.09820556640625,-0.001220703125,0.99505615234375,[0. 0. 0. 0. 0. 0. 0. 0. 0.],0.0,-0.001953125,0.0,[0. 0. 0. 0. 0. 0. 0. 0. 0.],-1.9140625,-0.3046875,9.58203125,[0. 0. 0. 0. 0. 0. 0. 0. 0.]
1742664805050429222,1742664805,38113248,imu_link,-0.015625,0.09820556640625,-0.001220703125,0.99505615234375,[0. 0. 0. 0. 0. 0. 0. 0. 0.],0.0,-0.001953125,0.0,[0. 0. 0. 0. 0. 0. 0. 0. 0.],-1.87890625,-0.3046875,9.578125,[0. 0. 0. 0. 0. 0. 0. 0. 0.]
1742664805059901933,1742664805,58121314,imu_link,-0.015625,0.09820556640625,-0.001220703125,0.99505615234375,[0. 0. 0. 0. 0. 0. 0. 0. 0.],0.0,-0.001953125,0.0,[0. 0. 0. 0. 0. 0. 0. 0. 0.],-1.87890625,-0.3046875,9.578125,[0. 0. 0. 0. 0. 0. 0. 0. 0.]
1742664805092964576,1742664805,78108973,imu_link,-0.015625,0.09820556640625,-0.001220703125,0.99505615234375,[0. 0. 0. 0. 0. 0. 0. 0. 0.],0.00390625,0.0,0.0,[0. 0. 0. 0. 0. 0. 0. 0. 0.],-1.87890625,-0.3046875,9.578125,[0. 0. 0. 0. 0. 0. 0. 0. 0.]
1742664805099763249,1742664805,98016223,imu_link,-0.015625,0.09820556640625,-0.001220703125,0.99505615234375,[0. 0. 0. 0. 0. 0. 0. 0. 0.],0.00390625,0.0,0.0,[0. 0. 0. 0. 0. 0. 0. 0. 0.],-1.87890625,-0.3046875,9.578125,[0. 0. 0. 0. 0. 0. 0. 0. 0.]
1742664805128517682,1742664805,118121884,imu_link,-0.015625,0.09820556640625,-0.001220703125,0.99505615234375,[0. 0. 0. 0. 0. 0. 0. 0. 0.],0.0,0.001953125,-0.001953125,[0. 0. 0. 0. 0. 0. 0. 0. 0.],-1.87890625,-0.3046875,9.578125,[0. 0. 0. 0. 0. 0. 0. 0. 0.]
1742664805150373905,1742664805,138063061,imu_link,-0.015625,0.09820556640625,-0.001220703125,0.99505615234375,[0. 0. 0. 0. 0. 0. 0. 0. 0.],0.0,0.001953125,-0.001953125,[0. 0. 0. 0. 0. 0. 0. 0. 0.],-1.9140625,-0.3046875,9.58203125,[0. 0. 0. 0. 0. 0. 0. 0. 0.]
1742664805159949951,1742664805,158116313,imu_link,-0.015625,0.09820556640625,-0.001220703125,0.99505615234375,[0. 0. 0. 0. 0. 0. 0. 0. 0.],0.0,0.001953125,-0.001953125,[0. 0. 0. 0. 0. 0. 0. 0. 0.],-1.9140625,-0.3046875,9.58203125,[0. 0. 0. 0. 0. 0. 0. 0. 0.]
1742664805179896887,1742664805,178088120,imu_link,-0.015625,0.09820556640625,-0.001220703125,0.99505615234375,[0. 0. 0. 0. 0. 0. 0. 0. 0.],-0.001953125,0.0,0.0,[0. 0. 0. 0. 0. 0. 0. 0. 0.],-1.9140625,-0.3046875,9.58203125,[0. 0. 0. 0. 0. 0. 0. 0. 0.]
1742664805204791320,1742664805,198061853,imu_link,-0.015625,0.09814453125,-0.001220703125,0.99505615234375,[0. 0. 0. 0. 0. 0. 0. 0. 0.],-0.001953125,0.0,0.0,[0. 0. 0. 0. 0. 0. 0. 0. 0.],-1.9140625,-0.3046875,9.58203125,[0. 0. 0. 0. 0. 0. 0. 0. 0.]
1742664805224819387,1742664805,218096494,imu_link,-0.015625,0.09814453125,-0.001220703125,0.99505615234375,[0. 0. 0. 0. 0. 0. 0. 0. 0.],0.00390625,-0.001953125,0.0,[0. 0. 0. 0. 0. 0. 0. 0. 0.],-1.9140625,-0.3046875,9.58203125,[0. 0. 0. 0. 0. 0. 0. 0. 0.]
1742664805248880549,1742664805,238044374,imu_link,-0.015625,0.09814453125,-0.001220703125,0.99505615234375,[0. 0. 0. 0. 0. 0. 0. 0. 0.],0.00390625,-0.001953125,0.0,[0. 0. 0. 0. 0. 0. 0. 0. 0.],-1.9140625,-0.3046875,9.58203125,[0. 0. 0. 0. 0. 0. 0. 0. 0.]
1742664805268612778,1742664805,258120646,imu_link,-0.015625,0.09814453125,-0.001220703125,0.99505615234375,[0. 0. 0. 0. 0. 0. 0. 0. 0.],0.001953125,0.001953125,0.0,[0. 0. 0. 0. 0. 0. 0. 0. 0.],-1.9140625,-0.3046875,9.58203125,[0. 0. 0. 0. 0. 0. 0. 0. 0.]
1742664805279758050,1742664805,278048267,imu_link,-0.015625,0.09814453125,-0.001220703125,0.99505615234375,[0. 0. 0. 0. 0. 0. 0. 0. 0.],0.001953125,0.001953125,0.0,[0. 0. 0. 0. 0. 0. 0. 0. 0.],-1.9140625,-0.3046875,9.58203125,[0. 0. 0. 0. 0. 0. 0. 0. 0.]
1742664805304732374,1742664805,298053833,imu_link,-0.01556396484375,0.09814453125,-0.00128173828125,0.99505615234375,[0. 0. 0. 0. 0. 0. 0. 0. 0.],0.001953125,0.001953125,0.0,[0. 0. 0. 0. 0. 0. 0. 0. 0.],-1.9140625,-0.3046875,9.58203125,[0. 0. 0. 0. 0. 0. 0. 0. 0.]
1742664805327992691,1742664805,318105160,imu_link,-0.01556396484375,0.09814453125,-0.00128173828125,0.99505615234375,[0. 0. 0. 0. 0. 0. 0. 0. 0.],-0.001953125,0.0,0.0,[0. 0. 0. 0. 0. 0. 0. 0. 0.],-1.9140625,-0.3046875,9.58203125,[0. 0. 0. 0. 0. 0. 0. 0. 0.]
1742664805349592133,1742664805,338092559,imu_link,-0.01556396484375,0.09814453125,-0.00128173828125,0.99505615234375,[0. 0. 0. 0. 0. 0. 0. 0. 0.],-0.001953125,0.0,0.0,[0. 0. 0. 0. 0. 0. 0. 0. 0.],-1.9140625,-0.3046875,9.58203125,[0. 0. 0. 0. 0. 0. 0. 0. 0.]
1742664805367915119,1742664805,358136478,imu_link,-0.01556396484375,0.09814453125,-0.00128173828125,0.99505615234375,[0. 0. 0. 0. 0. 0. 0. 0. 0.],-0.001953125,-0.00390625,0.001953125,[0. 0. 0. 0. 0. 0. 0. 0. 0.],-1.9140625,-0.3046875,9.58203125,[0. 0. 0. 0. 0. 0. 0. 0. 0.]
1742664805389931067,1742664805,378086933,imu_link,-0.015625,0.09814453125,-0.00128173828125,0.99505615234375,[0. 0. 0. 0. 0. 0. 0. 0. 0.],-0.001953125,-0.00390625,0.001953125,[0. 0. 0. 0. 0. 0. 0. 0. 0.],-1.9140625,-0.3046875,9.58203125,[0. 0. 0. 0. 0. 0. 0. 0. 0.]
1742664805400058083,1742664805,398150445,imu_link,-0.015625,0.09814453125,-0.00128173828125,0.99505615234375,[0. 0. 0. 0. 0. 0. 0. 0. 0.],-0.001953125,-0.00390625,0.001953125,[0. 0. 0. 0. 0. 0. 0. 0. 0.],-1.9140625,-0.3046875,9.58203125,[0. 0. 0. 0. 0. 0. 0. 0. 0.]
1742664805428279898,1742664805,418167808,imu_link,-0.015625,0.09814453125,-0.00128173828125,0.99505615234375,[0. 0. 0. 0. 0. 0. 0. 0. 0.],0.0,0.0,0.0,[0. 0. 0. 0. 0. 0. 0. 0. 0.],-1.9140625,-0.3046875,9.58203125,[0. 0. 0. 0. 0. 0. 0. 0. 0.]
1742664805442364916,1742664805,439899084,imu_link,-0.015625,0.09814453125,-0.00128173828125,0.99505615234375,[0. 0. 0. 0. 0. 0. 0. 0. 0.],0.0,0.0,0.0,[0. 0. 0. 0. 0. 0. 0. 0. 0.],-1.9140625,-0.3046875,9.58203125,[0. 0. 0. 0. 0. 0. 0. 0. 0.]
1742664805468045731,1742664805,458169996,imu_link,-0.015625,0.09814453125,-0.00128173828125,0.99505615234375,[0. 0. 0. 0. 0. 0. 0. 0. 0.],0.0,0.0,0.0,[0. 0. 0. 0. 0. 0. 0. 0. 0.],-1.9140625,-0.3046875,9.58203125,[0. 0. 0. 0. 0. 0. 0. 0. 0.]
1742664805491363753,1742664805,478085728,imu_link,-0.015625,0.09814453125,-0.00128173828125,0.99505615234375,[0. 0. 0. 0. 0. 0. 0. 0. 0.],0.0,0.0,0.0,[0. 0. 0. 0. 0. 0. 0. 0. 0.],-1.9140625,-0.3046875,9.58203125,[0. 0. 0. 0. 0. 0. 0. 0. 0.]
1742664805500286548,1742664805,498222315,imu_link,-0.015625,0.09814453125,-0.00128173828125,0.99505615234375,[0. 0. 0. 0. 0. 0. 0. 0. 0.],0.0,0.0,0.0,[0. 0. 0. 0. 0. 0. 0. 0. 0.],-1.9140625,-0.3046875,9.58203125,[0. 0. 0. 0. 0. 0. 0. 0. 0.]
1742664805539020274,1742664805,518179325,imu_link,-0.015625,0.09814453125,-0.00128173828125,0.99505615234375,[0. 0. 0. 0. 0. 0. 0. 0. 0.],0.0,0.0,0.0,[0. 0. 0. 0. 0. 0. 0. 0. 0.],-1.9140625,-0.3046875,9.58203125,[0. 0. 0. 0. 0. 0. 0. 0. 0.]
1742664805547982385,1742664805,541390568,imu_link,-0.015625,0.09814453125,-0.00128173828125,0.99505615234375,[0. 0. 0. 0. 0. 0. 0. 0. 0.],0.0,0.0,0.0,[0. 0. 0. 0. 0. 0. 0. 0. 0.],-1.9140625,-0.3046875,9.58203125,[0. 0. 0. 0. 0. 0. 0. 0. 0.]
1742664805564959741,1742664805,558172217,imu_link,-0.015625,0.09814453125,-0.00128173828125,0.99505615234375,[0. 0. 0. 0. 0. 0. 0. 0. 0.],0.0,0.0,0.0,[0. 0. 0. 0. 0. 0. 0. 0. 0.],-1.9140625,-0.3046875,9.58203125,[0. 0. 0. 0. 0. 0. 0. 0. 0.]
1742664805591834055,1742664805,578168691,imu_link,-0.015625,0.09814453125,-0.00128173828125,0.99505615234375,[0. 0. 0. 0. 0. 0. 0. 0. 0.],0.0,0.0,0.0,[0. 0. 0. 0. 0. 0. 0. 0. 0.],-1.9140625,-0.3046875,9.58203125,[0. 0. 0. 0. 0. 0. 0. 0. 0.]
1742664805599823319,1742664805,598068923,imu_link,-0.015625,0.09814453125,-0.00128173828125,0.99505615234375,[0. 0. 0. 0. 0. 0. 0. 0. 0.],0.0,0.0,0.0,[0. 0. 0. 0. 0. 0. 0. 0. 0.],-1.9140625,-0.3046875,9.58203125,[0. 0. 0. 0. 0. 0. 0. 0. 0.]
1742664805643727582,1742664805,618257566,imu_link,-0.015625,0.09814453125,-0.00128173828125,0.99505615234375,[0. 0. 0. 0. 0. 0. 0. 0. 0.],0.0,0.0,0.0,[0. 0. 0. 0. 0. 0. 0. 0. 0.],-1.9140625,-0.3046875,9.58203125,[0. 0. 0. 0. 0. 0. 0. 0. 0.]
1742664805648149609,1742664805,646327545,imu_link,-0.015625,0.09814453125,-0.00128173828125,0.99505615234375,[0. 0. 0. 0. 0. 0. 0. 0. 0.],0.0,0.0,0.0,[0. 0. 0. 0. 0. 0. 0. 0. 0.],-1.87890625,-0.3046875,9.578125,[0. 0. 0. 0. 0. 0. 0. 0. 0.]
1742664805665618694,1742664805,658167235,imu_link,-0.015625,0.09814453125,-0.00128173828125,0.99505615234375,[0. 0. 0. 0. 0. 0. 0. 0. 0.],0.0,0.0,0.0,[0. 0. 0. 0. 0. 0. 0. 0. 0.],-1.87890625,-0.3046875,9.578125,[0. 0. 0. 0. 0. 0. 0. 0. 0.]
1742664805692973108,1742664805,678284136,imu_link,-0.01556396484375,0.09820556640625,-0.00128173828125,0.99505615234375,[0. 0. 0. 0. 0. 0. 0. 0. 0.],0.0,0.0,0.0,[0. 0. 0. 0. 0. 0. 0. 0. 0.],-1.9140625,-0.3046875,9.58203125,[0. 0. 0. 0. 0. 0. 0. 0. 0.]
1742664805699894078,1742664805,698074089,imu_link,-0.01556396484375,0.09820556640625,-0.00128173828125,0.99505615234375,[0. 0. 0. 0. 0. 0. 0. 0. 0.],0.0,0.0,0.0,[0. 0. 0. 0. 0. 0. 0. 0. 0.],-1.9140625,-0.3046875,9.58203125,[0. 0. 0. 0. 0. 0. 0. 0. 0.]
1742664805738707842,1742664805,718203824,imu_link,-0.01556396484375,0.09820556640625,-0.00128173828125,0.99505615234375,[0. 0. 0. 0. 0. 0. 0. 0. 0.],0.0,0.0,0.0,[0. 0. 0. 0. 0. 0. 0. 0. 0.],-1.9140625,-0.3046875,9.58203125,[0. 0. 0. 0. 0. 0. 0. 0. 0.]
1742664805745454013,1742664805,741669144,imu_link,-0.01556396484375,0.09820556640625,-0.00128173828125,0.99505615234375,[0. 0. 0. 0. 0. 0. 0. 0. 0.],0.0,0.0,0.0,[0. 0. 0. 0. 0. 0. 0. 0. 0.],-1.87890625,-0.3046875,9.578125,[0. 0. 0. 0. 0. 0. 0. 0. 0.]
1742664805768701182,1742664805,758175623,imu_link,-0.01556396484375,0.09820556640625,-0.00128173828125,0.99505615234375,[0. 0. 0. 0. 0. 0. 0. 0. 0.],0.0,0.0,0.0,[0. 0. 0. 0. 0. 0. 0. 0. 0.],-1.87890625,-0.3046875,9.578125,[0. 0. 0. 0. 0. 0. 0. 0. 0.]
1742664805790193066,1742664805,778096058,imu_link,-0.01556396484375,0.09814453125,-0.001220703125,0.99505615234375,[0. 0. 0. 0. 0. 0. 0. 0. 0.],0.0,0.0,0.0,[0. 0. 0. 0. 0. 0. 0. 0. 0.],-1.87890625,-0.3046875,9.578125,[0. 0. 0. 0. 0. 0. 0. 0. 0.]
1742664805806016091,1742664805,798070513,imu_link,-0.01556396484375,0.09814453125,-0.001220703125,0.99505615234375,[0. 0. 0. 0. 0. 0. 0. 0. 0.],0.0,0.0,0.0,[0. 0. 0. 0. 0. 0. 0. 0. 0.],-1.9140625,-0.3046875,9.58203125,[0. 0. 0. 0. 0. 0. 0. 0. 0.]
1742664805838622617,1742664805,818242675,imu_link,-0.01556396484375,0.09814453125,-0.001220703125,0.99505615234375,[0. 0. 0. 0. 0. 0. 0. 0. 0.],0.0,0.001953125,0.0,[0. 0. 0. 0. 0. 0. 0. 0. 0.],-1.9140625,-0.3046875,9.58203125,[0. 0. 0. 0. 0. 0. 0. 0. 0.]
1742664805844836540,1742664805,841507400,imu_link,-0.01556396484375,0.09814453125,-0.001220703125,0.99505615234375,[0. 0. 0. 0. 0. 0. 0. 0. 0.],0.0,0.001953125,0.0,[0. 0. 0. 0. 0. 0. 0. 0. 0.],-1.9140625,-0.3046875,9.58203125,[0. 0. 0. 0. 0. 0. 0. 0. 0.]
1742664805868694718,1742664805,858199863,imu_link,-0.01556396484375,0.09814453125,-0.001220703125,0.99505615234375,[0. 0. 0. 0. 0. 0. 0. 0. 0.],0.0,-0.001953125,0.0,[0. 0. 0. 0. 0. 0. 0. 0. 0.],-1.9140625,-0.3046875,9.58203125,[0. 0. 0. 0. 0. 0. 0. 0. 0.]
1742664805889567612,1742664805,878066168,imu_link,-0.01556396484375,0.09814453125,-0.001220703125,0.99505615234375,[0. 0. 0. 0. 0. 0. 0. 0. 0.],0.0,-0.001953125,0.0,[0. 0. 0. 0. 0. 0. 0. 0. 0.],-1.9140625,-0.3046875,9.58203125,[0. 0. 0. 0. 0. 0. 0. 0. 0.]
1742664805901060315,1742664805,898067457,imu_link,-0.01556396484375,0.09814453125,-0.001220703125,0.99505615234375,[0. 0. 0. 0. 0. 0. 0. 0. 0.],0.0,-0.001953125,0.0,[0. 0. 0. 0. 0. 0. 0. 0. 0.],-1.9140625,-0.3046875,9.58203125,[0. 0. 0. 0. 0. 0. 0. 0. 0.]
1742664805939782207,1742664805,918163488,imu_link,-0.01556396484375,0.09814453125,-0.00128173828125,0.99505615234375,[0. 0. 0. 0. 0. 0. 0. 0. 0.],-0.001953125,0.001953125,0.0,[0. 0. 0. 0. 0. 0. 0. 0. 0.],-1.9140625,-0.3046875,9.58203125,[0. 0. 0. 0. 0. 0. 0. 0. 0.]
1742664805945784905,1742664805,942429671,imu_link,-0.01556396484375,0.09814453125,-0.00128173828125,0.99505615234375,[0. 0. 0. 0. 0. 0. 0. 0. 0.],-0.001953125,0.001953125,0.0,[0. 0. 0. 0. 0. 0. 0. 0. 0.],-1.9140625,-0.3046875,9.58203125,[0. 0. 0. 0. 0. 0. 0. 0. 0.]
1742664805968628272,1742664805,958158491,imu_link,-0.01556396484375,0.09814453125,-0.00128173828125,0.99505615234375,[0. 0. 0. 0. 0. 0. 0. 0. 0.],-0.001953125,0.0,-0.001953125,[0. 0. 0. 0. 0. 0. 0. 0. 0.],-1.87890625,-0.26953125,9.58203125,[0. 0. 0. 0. 0. 0. 0. 0. 0.]
1742664805993645392,1742664805,978091612,imu_link,-0.01556396484375,0.09814453125,-0.00128173828125,0.99505615234375,[0. 0. 0. 0. 0. 0. 0. 0. 0.],-0.001953125,0.0,-0.001953125,[0. 0. 0. 0. 0. 0. 0. 0. 0.],-1.9140625,-0.3046875,9.58203125,[0. 0. 0. 0. 0. 0. 0. 0. 0.]
1742664806001229816,1742664805,998149698,imu_link,-0.01556396484375,0.09814453125,-0.00128173828125,0.99505615234375,[0. 0. 0. 0. 0. 0. 0. 0. 0.],-0.001953125,0.0,-0.001953125,[0. 0. 0. 0. 0. 0. 0. 0. 0.],-1.9140625,-0.3046875,9.58203125,[0. 0. 0. 0. 0. 0. 0. 0. 0.]
1742664806038849877,1742664806,18178783,imu_link,-0.01556396484375,0.09814453125,-0.00128173828125,0.99505615234375,[0. 0. 0. 0. 0. 0. 0. 0. 0.],-0.001953125,0.0,0.0,[0. 0. 0. 0. 0. 0. 0. 0. 0.],-1.9140625,-0.3046875,9.58203125,[0. 0. 0. 0. 0. 0. 0. 0. 0.]
1742664806044919354,1742664806,41547490,imu_link,-0.01556396484375,0.09814453125,-0.00128173828125,0.99505615234375,[0. 0. 0. 0. 0. 0. 0. 0. 0.],-0.001953125,0.0,0.0,[0. 0. 0. 0. 0. 0. 0. 0. 0.],-1.9140625,-0.3046875,9.58203125,[0. 0. 0. 0. 0. 0. 0. 0. 0.]
1742664806068934515,1742664806,58168637,imu_link,-0.01556396484375,0.09814453125,-0.00128173828125,0.99505615234375,[0. 0. 0. 0. 0. 0. 0. 0. 0.],-0.001953125,0.0,-0.00390625,[0. 0. 0. 0. 0. 0. 0. 0. 0.],-1.9140625,-0.3046875,9.58203125,[0. 0. 0. 0. 0. 0. 0. 0. 0.]
1742664806092371353,1742664806,78106943,imu_link,-0.015625,0.09814453125,-0.00128173828125,0.99505615234375,[0. 0. 0. 0. 0. 0. 0. 0. 0.],-0.001953125,0.0,-0.00390625,[0. 0. 0. 0. 0. 0. 0. 0. 0.],-1.9140625,-0.3046875,9.58203125,[0. 0. 0. 0. 0. 0. 0. 0. 0.]
1742664806102327292,1742664806,98137751,imu_link,-0.015625,0.09814453125,-0.00128173828125,0.99505615234375,[0. 0. 0. 0. 0. 0. 0. 0. 0.],-0.001953125,0.0,-0.00390625,[0. 0. 0. 0. 0. 0. 0. 0. 0.],-1.9140625,-0.3046875,9.58203125,[0. 0. 0. 0. 0. 0. 0. 0. 0.]
1742664806139655849,1742664806,118140465,imu_link,-0.015625,0.09814453125,-0.00128173828125,0.99505615234375,[0. 0. 0. 0. 0. 0. 0. 0. 0.],-0.00390625,0.0,0.001953125,[0. 0. 0. 0. 0. 0. 0. 0. 0.],-1.9140625,-0.3046875,9.58203125,[0. 0. 0. 0. 0. 0. 0. 0. 0.]
1742664806149365748,1742664806,146858046,imu_link,-0.015625,0.09814453125,-0.00128173828125,0.99505615234375,[0. 0. 0. 0. 0. 0. 0. 0. 0.],-0.00390625,0.0,0.001953125,[0. 0. 0. 0. 0. 0. 0. 0. 0.],-1.9140625,-0.3046875,9.58203125,[0. 0. 0. 0. 0. 0. 0. 0. 0.]
1742664806165513500,1742664806,158069207,imu_link,-0.015625,0.09814453125,-0.00128173828125,0.99505615234375,[0. 0. 0. 0. 0. 0. 0. 0. 0.],0.0,0.0,-0.001953125,[0. 0. 0. 0. 0. 0. 0. 0. 0.],-1.9140625,-0.3046875,9.58203125,[0. 0. 0. 0. 0. 0. 0. 0. 0.]
1742664806192496222,1742664806,178148404,imu_link,-0.015625,0.09814453125,-0.00128173828125,0.99505615234375,[0. 0. 0. 0. 0. 0. 0. 0. 0.],0.0,0.0,-0.001953125,[0. 0. 0. 0. 0. 0. 0. 0. 0.],-1.9140625,-0.3046875,9.58203125,[0. 0. 0. 0. 0. 0. 0. 0. 0.]
1742664806201242885,1742664806,198158507,imu_link,-0.015625,0.09814453125,-0.00128173828125,0.99505615234375,[0. 0. 0. 0. 0. 0. 0. 0. 0.],0.0,0.0,-0.001953125,[0. 0. 0. 0. 0. 0. 0. 0. 0.],-1.9140625,-0.3046875,9.58203125,[0. 0. 0. 0. 0. 0. 0. 0. 0.]
1742664806243155101,1742664806,218136647,imu_link,-0.015625,0.09814453125,-0.00128173828125,0.99505615234375,[0. 0. 0. 0. 0. 0. 0. 0. 0.],0.0,0.0,0.0,[0. 0. 0. 0. 0. 0. 0. 0. 0.],-1.9140625,-0.3046875,9.58203125,[0. 0. 0. 0. 0. 0. 0. 0. 0.]
1742664806248387361,1742664806,246382444,imu_link,-0.015625,0.09814453125,-0.00128173828125,0.99505615234375,[0. 0. 0. 0. 0. 0. 0. 0. 0.],0.0,0.0,0.0,[0. 0. 0. 0. 0. 0. 0. 0. 0.],-1.9140625,-0.3046875,9.58203125,[0. 0. 0. 0. 0. 0. 0. 0. 0.]
1742664806266075172,1742664806,258083334,imu_link,-0.015625,0.09814453125,-0.00128173828125,0.99505615234375,[0. 0. 0. 0. 0. 0. 0. 0. 0.],-0.001953125,0.0,-0.001953125,[0. 0. 0. 0. 0. 0. 0. 0. 0.],-1.9140625,-0.3046875,9.58203125,[0. 0. 0. 0. 0. 0. 0. 0. 0.]
1742664806292316347,1742664806,278077956,imu_link,-0.015625,0.09814453125,-0.00128173828125,0.99505615234375,[0. 0. 0. 0. 0. 0. 0. 0. 0.],-0.001953125,0.0,-0.001953125,[0. 0. 0. 0. 0. 0. 0. 0. 0.],-1.9140625,-0.3046875,9.58203125,[0. 0. 0. 0. 0. 0. 0. 0. 0.]
1742664806305666743,1742664806,298130634,imu_link,-0.015625,0.09814453125,-0.00128173828125,0.99505615234375,[0. 0. 0. 0. 0. 0. 0. 0. 0.],-0.001953125,0.0,-0.001953125,[0. 0. 0. 0. 0. 0. 0. 0. 0.],-1.9140625,-0.3046875,9.58203125,[0. 0. 0. 0. 0. 0. 0. 0. 0.]
1742664806326068426,1742664806,318187182,imu_link,-0.015625,0.09814453125,-0.00128173828125,0.99505615234375,[0. 0. 0. 0. 0. 0. 0. 0. 0.],-0.001953125,-0.001953125,0.0,[0. 0. 0. 0. 0. 0. 0. 0. 0.],-1.9140625,-0.3046875,9.58203125,[0. 0. 0. 0. 0. 0. 0. 0. 0.]
1742664806353348838,1742664806,338125433,imu_link,-0.015625,0.09814453125,-0.00128173828125,0.99505615234375,[0. 0. 0. 0. 0. 0. 0. 0. 0.],-0.001953125,-0.001953125,0.0,[0. 0. 0. 0. 0. 0. 0. 0. 0.],-1.9140625,-0.3046875,9.58203125,[0. 0. 0. 0. 0. 0. 0. 0. 0.]
1742664806369052157,1742664806,358100351,imu_link,-0.015625,0.09814453125,-0.00128173828125,0.99505615234375,[0. 0. 0. 0. 0. 0. 0. 0. 0.],0.0,0.001953125,-0.001953125,[0. 0. 0. 0. 0. 0. 0. 0. 0.],-1.9140625,-0.3046875,9.58203125,[0. 0. 0. 0. 0. 0. 0. 0. 0.]
1742664806390815137,1742664806,378076027,imu_link,-0.015625,0.09814453125,-0.00128173828125,0.99505615234375,[0. 0. 0. 0. 0. 0. 0. 0. 0.],0.0,0.001953125,-0.001953125,[0. 0. 0. 0. 0. 0. 0. 0. 0.],-1.9140625,-0.3046875,9.58203125,[0. 0. 0. 0. 0. 0. 0. 0. 0.]
1742664806405456200,1742664806,398158410,imu_link,-0.015625,0.09814453125,-0.00128173828125,0.99505615234375,[0. 0. 0. 0. 0. 0. 0. 0. 0.],0.0,0.001953125,-0.001953125,[0. 0. 0. 0. 0. 0. 0. 0. 0.],-1.9140625,-0.3046875,9.58203125,[0. 0. 0. 0. 0. 0. 0. 0. 0.]
1742664806425445914,1742664806,418076900,imu_link,-0.015625,0.09814453125,-0.00128173828125,0.99505615234375,[0. 0. 0. 0. 0. 0. 0. 0. 0.],0.0,0.0,-0.00390625,[0. 0. 0. 0. 0. 0. 0. 0. 0.],-1.9140625,-0.3046875,9.58203125,[0. 0. 0. 0. 0. 0. 0. 0. 0.]
1742664806443162540,1742664806,439714731,imu_link,-0.015625,0.09814453125,-0.00128173828125,0.99505615234375,[0. 0. 0. 0. 0. 0. 0. 0. 0.],0.0,0.0,-0.00390625,[0. 0. 0. 0. 0. 0. 0. 0. 0.],-1.9140625,-0.3046875,9.58203125,[0. 0. 0. 0. 0. 0. 0. 0. 0.]
1742664806470405451,1742664806,458145812,imu_link,-0.015625,0.09814453125,-0.00128173828125,0.99505615234375,[0. 0. 0. 0. 0. 0. 0. 0. 0.],0.0,0.0,0.0,[0. 0. 0. 0. 0. 0. 0. 0. 0.],-1.9140625,-0.3046875,9.58203125,[0. 0. 0. 0. 0. 0. 0. 0. 0.]
1742664806493866178,1742664806,478079303,imu_link,-0.015625,0.09820556640625,-0.0013427734375,0.99505615234375,[0. 0. 0. 0. 0. 0. 0. 0. 0.],0.0,0.0,0.0,[0. 0. 0. 0. 0. 0. 0. 0. 0.],-1.9140625,-0.3046875,9.58203125,[0. 0. 0. 0. 0. 0. 0. 0. 0.]
1742664806501772237,1742664806,498260057,imu_link,-0.015625,0.09820556640625,-0.0013427734375,0.99505615234375,[0. 0. 0. 0. 0. 0. 0. 0. 0.],0.0,0.0,0.0,[0. 0. 0. 0. 0. 0. 0. 0. 0.],-1.9140625,-0.3046875,9.58203125,[0. 0. 0. 0. 0. 0. 0. 0. 0.]
1742664806538737455,1742664806,518078953,imu_link,-0.015625,0.09820556640625,-0.0013427734375,0.99505615234375,[0. 0. 0. 0. 0. 0. 0. 0. 0.],0.0,0.001953125,-0.001953125,[0. 0. 0. 0. 0. 0. 0. 0. 0.],-1.9140625,-0.3046875,9.58203125,[0. 0. 0. 0. 0. 0. 0. 0. 0.]
1742664806544953045,1742664806,541405123,imu_link,-0.015625,0.09820556640625,-0.0013427734375,0.99505615234375,[0. 0. 0. 0. 0. 0. 0. 0. 0.],0.0,0.001953125,-0.001953125,[0. 0. 0. 0. 0. 0. 0. 0. 0.],-1.9140625,-0.3046875,9.58203125,[0. 0. 0. 0. 0. 0. 0. 0. 0.]
1742664806570271539,1742664806,558129290,imu_link,-0.015625,0.09820556640625,-0.0013427734375,0.99505615234375,[0. 0. 0. 0. 0. 0. 0. 0. 0.],0.0,0.0,-0.001953125,[0. 0. 0. 0. 0. 0. 0. 0. 0.],-1.9140625,-0.3046875,9.58203125,[0. 0. 0. 0. 0. 0. 0. 0. 0.]
1742664806591602236,1742664806,578089911,imu_link,-0.015625,0.09820556640625,-0.0013427734375,0.99505615234375,[0. 0. 0. 0. 0. 0. 0. 0. 0.],0.0,0.0,-0.001953125,[0. 0. 0. 0. 0. 0. 0. 0. 0.],-1.9140625,-0.3046875,9.58203125,[0. 0. 0. 0. 0. 0. 0. 0. 0.]
1742664806601581583,1742664806,598155756,imu_link,-0.015625,0.09820556640625,-0.0013427734375,0.99505615234375,[0. 0. 0. 0. 0. 0. 0. 0. 0.],0.0,0.0,-0.001953125,[0. 0. 0. 0. 0. 0. 0. 0. 0.],-1.9140625,-0.3046875,9.58203125,[0. 0. 0. 0. 0. 0. 0. 0. 0.]
1742664806638846435,1742664806,618147118,imu_link,-0.015625,0.09820556640625,-0.0013427734375,0.99505615234375,[0. 0. 0. 0. 0. 0. 0. 0. 0.],0.001953125,0.0,0.001953125,[0. 0. 0. 0. 0. 0. 0. 0. 0.],-1.9140625,-0.3046875,9.58203125,[0. 0. 0. 0. 0. 0. 0. 0. 0.]
1742664806646127466,1742664806,642265374,imu_link,-0.015625,0.09820556640625,-0.0013427734375,0.99505615234375,[0. 0. 0. 0. 0. 0. 0. 0. 0.],0.001953125,0.0,0.001953125,[0. 0. 0. 0. 0. 0. 0. 0. 0.],-1.9140625,-0.3046875,9.58203125,[0. 0. 0. 0. 0. 0. 0. 0. 0.]
1742664806670159276,1742664806,658131269,imu_link,-0.015625,0.09820556640625,-0.0013427734375,0.99505615234375,[0. 0. 0. 0. 0. 0. 0. 0. 0.],0.0,0.001953125,-0.001953125,[0. 0. 0. 0. 0. 0. 0. 0. 0.],-1.9140625,-0.3046875,9.58203125,[0. 0. 0. 0. 0. 0. 0. 0. 0.]
1742664806692251224,1742664806,678163706,imu_link,-0.015625,0.0982666015625,-0.0013427734375,0.99505615234375,[0. 0. 0. 0. 0. 0. 0. 0. 0.],0.0,0.001953125,-0.001953125,[0. 0. 0. 0. 0. 0. 0. 0. 0.],-1.9140625,-0.3046875,9.58203125,[0. 0. 0. 0. 0. 0. 0. 0. 0.]
1742664806702101570,1742664806,698145272,imu_link,-0.015625,0.0982666015625,-0.0013427734375,0.99505615234375,[0. 0. 0. 0. 0. 0. 0. 0. 0.],0.0,0.001953125,-0.001953125,[0. 0. 0. 0. 0. 0. 0. 0. 0.],-1.9140625,-0.3046875,9.58203125,[0. 0. 0. 0. 0. 0. 0. 0. 0.]
1742664806738629059,1742664806,718171727,imu_link,-0.01568603515625,0.09832763671875,-0.0013427734375,0.99505615234375,[0. 0. 0. 0. 0. 0. 0. 0. 0.],-0.001953125,0.001953125,0.0,[0. 0. 0. 0. 0. 0. 0. 0. 0.],-1.9140625,-0.3046875,9.58203125,[0. 0. 0. 0. 0. 0. 0. 0. 0.]
1742664806748816410,1742664806,740881888,imu_link,-0.01568603515625,0.09832763671875,-0.0013427734375,0.99505615234375,[0. 0. 0. 0. 0. 0. 0. 0. 0.],-0.001953125,0.001953125,0.0,[0. 0. 0. 0. 0. 0. 0. 0. 0.],-1.9140625,-0.3046875,9.58203125,[0. 0. 0. 0. 0. 0. 0. 0. 0.]
1742664806765671782,1742664806,758123174,imu_link,-0.01568603515625,0.09832763671875,-0.0013427734375,0.99505615234375,[0. 0. 0. 0. 0. 0. 0. 0. 0.],0.0,-0.001953125,0.0,[0. 0. 0. 0. 0. 0. 0. 0. 0.],-1.9140625,-0.3046875,9.58203125,[0. 0. 0. 0. 0. 0. 0. 0. 0.]
1742664806792808563,1742664806,778097869,imu_link,-0.01568603515625,0.09832763671875,-0.0013427734375,0.99505615234375,[0. 0. 0. 0. 0. 0. 0. 0. 0.],0.0,-0.001953125,0.0,[0. 0. 0. 0. 0. 0. 0. 0. 0.],-1.9140625,-0.3046875,9.58203125,[0. 0. 0. 0. 0. 0. 0. 0. 0.]
1742664806801633616,1742664806,798146473,imu_link,-0.01568603515625,0.09832763671875,-0.0013427734375,0.99505615234375,[0. 0. 0. 0. 0. 0. 0. 0. 0.],0.0,-0.001953125,0.0,[0. 0. 0. 0. 0. 0. 0. 0. 0.],-1.9140625,-0.3046875,9.58203125,[0. 0. 0. 0. 0. 0. 0. 0. 0.]
1742664806844469456,1742664806,818216447,imu_link,-0.01568603515625,0.09832763671875,-0.00128173828125,0.99505615234375,[0. 0. 0. 0. 0. 0. 0. 0. 0.],0.001953125,0.0,0.0,[0. 0. 0. 0. 0. 0. 0. 0. 0.],-1.9140625,-0.3046875,9.58203125,[0. 0. 0. 0. 0. 0. 0. 0. 0.]
1742664806849543103,1742664806,846378335,imu_link,-0.01568603515625,0.09832763671875,-0.00128173828125,0.99505615234375,[0. 0. 0. 0. 0. 0. 0. 0. 0.],0.001953125,0.0,0.0,[0. 0. 0. 0. 0. 0. 0. 0. 0.],-1.87890625,-0.3046875,9.578125,[0. 0. 0. 0. 0. 0. 0. 0. 0.]
1742664806865728781,1742664806,858124912,imu_link,-0.01568603515625,0.09832763671875,-0.00128173828125,0.99505615234375,[0. 0. 0. 0. 0. 0. 0. 0. 0.],0.0,-0.001953125,-0.001953125,[0. 0. 0. 0. 0. 0. 0. 0. 0.],-1.87890625,-0.3046875,9.578125,[0. 0. 0. 0. 0. 0. 0. 0. 0.]
1742664806892995489,1742664806,878103681,imu_link,-0.01568603515625,0.09832763671875,-0.0013427734375,0.99505615234375,[0. 0. 0. 0. 0. 0. 0. 0. 0.],0.0,-0.001953125,-0.001953125,[0. 0. 0. 0. 0. 0. 0. 0. 0.],-1.9140625,-0.3046875,9.58203125,[0. 0. 0. 0. 0. 0. 0. 0. 0.]
1742664806904999162,1742664806,898144933,imu_link,-0.01568603515625,0.09832763671875,-0.0013427734375,0.99505615234375,[0. 0. 0. 0. 0. 0. 0. 0. 0.],0.0,-0.001953125,-0.001953125,[0. 0. 0. 0. 0. 0. 0. 0. 0.],-1.9140625,-0.3046875,9.58203125,[0. 0. 0. 0. 0. 0. 0. 0. 0.]
1742664806925374992,1742664806,918077313,imu_link,-0.01568603515625,0.09832763671875,-0.0013427734375,0.99505615234375,[0. 0. 0. 0. 0. 0. 0. 0. 0.],-0.001953125,-0.001953125,-0.001953125,[0. 0. 0. 0. 0. 0. 0. 0. 0.],-1.9140625,-0.3046875,9.58203125,[0. 0. 0. 0. 0. 0. 0. 0. 0.]
1742664806952746369,1742664806,938167899,imu_link,-0.01568603515625,0.09832763671875,-0.0013427734375,0.99505615234375,[0. 0. 0. 0. 0. 0. 0. 0. 0.],-0.001953125,-0.001953125,-0.001953125,[0. 0. 0. 0. 0. 0. 0. 0. 0.],-1.9140625,-0.3046875,9.58203125,[0. 0. 0. 0. 0. 0. 0. 0. 0.]
1742664806969354478,1742664806,958069927,imu_link,-0.01568603515625,0.09832763671875,-0.0013427734375,0.99505615234375,[0. 0. 0. 0. 0. 0. 0. 0. 0.],-0.001953125,0.001953125,-0.001953125,[0. 0. 0. 0. 0. 0. 0. 0. 0.],-1.9140625,-0.3046875,9.58203125,[0. 0. 0. 0. 0. 0. 0. 0. 0.]
1742664806991581169,1742664806,978076512,imu_link,-0.01568603515625,0.09832763671875,-0.0013427734375,0.99505615234375,[0. 0. 0. 0. 0. 0. 0. 0. 0.],-0.001953125,0.001953125,-0.001953125,[0. 0. 0. 0. 0. 0. 0. 0. 0.],-1.9140625,-0.3046875,9.58203125,[0. 0. 0. 0. 0. 0. 0. 0. 0.]
1742664807004997585,1742664806,998326989,imu_link,-0.01568603515625,0.09832763671875,-0.0013427734375,0.99505615234375,[0. 0. 0. 0. 0. 0. 0. 0. 0.],-0.001953125,0.001953125,-0.001953125,[0. 0. 0. 0. 0. 0. 0. 0. 0.],-1.9140625,-0.3046875,9.58203125,[0. 0. 0. 0. 0. 0. 0. 0. 0.]
1742664807021444192,1742664807,18076329,imu_link,-0.01568603515625,0.09832763671875,-0.0013427734375,0.99505615234375,[0. 0. 0. 0. 0. 0. 0. 0. 0.],-0.001953125,0.0,0.0,[0. 0. 0. 0. 0. 0. 0. 0. 0.],-1.9140625,-0.3046875,9.58203125,[0. 0. 0. 0. 0. 0. 0. 0. 0.]
1742664807052401508,1742664807,38178192,imu_link,-0.01568603515625,0.09832763671875,-0.0013427734375,0.99505615234375,[0. 0. 0. 0. 0. 0. 0. 0. 0.],-0.001953125,0.0,0.0,[0. 0. 0. 0. 0. 0. 0. 0. 0.],-1.9140625,-0.3046875,9.58203125,[0. 0. 0. 0. 0. 0. 0. 0. 0.]
1742664807069111804,1742664807,58069775,imu_link,-0.01568603515625,0.09832763671875,-0.0013427734375,0.99505615234375,[0. 0. 0. 0. 0. 0. 0. 0. 0.],0.0,0.001953125,0.0,[0. 0. 0. 0. 0. 0. 0. 0. 0.],-1.9140625,-0.3046875,9.58203125,[0. 0. 0. 0. 0. 0. 0. 0. 0.]
1742664807094610246,1742664807,78077545,imu_link,-0.01568603515625,0.09832763671875,-0.0013427734375,0.99505615234375,[0. 0. 0. 0. 0. 0. 0. 0. 0.],0.0,0.001953125,0.0,[0. 0. 0. 0. 0. 0. 0. 0. 0.],-1.9140625,-0.3046875,9.58203125,[0. 0. 0. 0. 0. 0. 0. 0. 0.]
1742664807101513382,1742664807,98092444,imu_link,-0.01568603515625,0.09832763671875,-0.0013427734375,0.99505615234375,[0. 0. 0. 0. 0. 0. 0. 0. 0.],0.0,0.001953125,0.0,[0. 0. 0. 0. 0. 0. 0. 0. 0.],-1.9140625,-0.3046875,9.58203125,[0. 0. 0. 0. 0. 0. 0. 0. 0.]
1742664807140114753,1742664807,118162863,imu_link,-0.01568603515625,0.09832763671875,-0.0013427734375,0.99505615234375,[0. 0. 0. 0. 0. 0. 0. 0. 0.],-0.001953125,0.0,0.0,[0. 0. 0. 0. 0. 0. 0. 0. 0.],-1.9140625,-0.3046875,9.58203125,[0. 0. 0. 0. 0. 0. 0. 0. 0.]
1742664807144946378,1742664807,143000776,imu_link,-0.01568603515625,0.09832763671875,-0.0013427734375,0.99505615234375,[0. 0. 0. 0. 0. 0. 0. 0. 0.],-0.001953125,0.0,0.0,[0. 0. 0. 0. 0. 0. 0. 0. 0.],-1.9140625,-0.3046875,9.58203125,[0. 0. 0. 0. 0. 0. 0. 0. 0.]
1742664807170032276,1742664807,158130272,imu_link,-0.01568603515625,0.09832763671875,-0.0013427734375,0.99505615234375,[0. 0. 0. 0. 0. 0. 0. 0. 0.],0.0,-0.001953125,0.0,[0. 0. 0. 0. 0. 0. 0. 0. 0.],-1.9140625,-0.3046875,9.58203125,[0. 0. 0. 0. 0. 0. 0. 0. 0.]
1742664807192714418,1742664807,178136597,imu_link,-0.01568603515625,0.09832763671875,-0.0013427734375,0.99505615234375,[0. 0. 0. 0. 0. 0. 0. 0. 0.],0.0,-0.001953125,0.0,[0. 0. 0. 0. 0. 0. 0. 0. 0.],-1.9140625,-0.3046875,9.58203125,[0. 0. 0. 0. 0. 0. 0. 0. 0.]
1742664807201419525,1742664807,198062310,imu_link,-0.01568603515625,0.09832763671875,-0.0013427734375,0.99505615234375,[0. 0. 0. 0. 0. 0. 0. 0. 0.],0.0,-0.001953125,0.0,[0. 0. 0. 0. 0. 0. 0. 0. 0.],-1.9140625,-0.3046875,9.58203125,[0. 0. 0. 0. 0. 0. 0. 0. 0.]
1742664807238989547,1742664807,218141525,imu_link,-0.01568603515625,0.09832763671875,-0.0013427734375,0.99505615234375,[0. 0. 0. 0. 0. 0. 0. 0. 0.],0.0,0.0,0.0,[0. 0. 0. 0. 0. 0. 0. 0. 0.],-1.9140625,-0.3046875,9.58203125,[0. 0. 0. 0. 0. 0. 0. 0. 0.]
1742664807243893451,1742664807,241744791,imu_link,-0.01568603515625,0.09832763671875,-0.0013427734375,0.99505615234375,[0. 0. 0. 0. 0. 0. 0. 0. 0.],0.0,0.0,0.0,[0. 0. 0. 0. 0. 0. 0. 0. 0.],-1.9140625,-0.3046875,9.58203125,[0. 0. 0. 0. 0. 0. 0. 0. 0.]
1742664807269831343,1742664807,258135767,imu_link,-0.01568603515625,0.09832763671875,-0.0013427734375,0.99505615234375,[0. 0. 0. 0. 0. 0. 0. 0. 0.],0.0,0.001953125,-0.00390625,[0. 0. 0. 0. 0. 0. 0. 0. 0.],-1.9140625,-0.3046875,9.58203125,[0. 0. 0. 0. 0. 0. 0. 0. 0.]
1742664807292601097,1742664807,278058110,imu_link,-0.01568603515625,0.09832763671875,-0.0013427734375,0.99505615234375,[0. 0. 0. 0. 0. 0. 0. 0. 0.],0.0,0.001953125,-0.00390625,[0. 0. 0. 0. 0. 0. 0. 0. 0.],-1.9140625,-0.3046875,9.58203125,[0. 0. 0. 0. 0. 0. 0. 0. 0.]
1742664807301453558,1742664807,298080343,imu_link,-0.01568603515625,0.09832763671875,-0.0013427734375,0.99505615234375,[0. 0. 0. 0. 0. 0. 0. 0. 0.],0.0,0.001953125,-0.00390625,[0. 0. 0. 0. 0. 0. 0. 0. 0.],-1.9140625,-0.3046875,9.58203125,[0. 0. 0. 0. 0. 0. 0. 0. 0.]
1742664807338921283,1742664807,318117242,imu_link,-0.01568603515625,0.09832763671875,-0.0013427734375,0.99505615234375,[0. 0. 0. 0. 0. 0. 0. 0. 0.],0.0,-0.001953125,0.0,[0. 0. 0. 0. 0. 0. 0. 0. 0.],-1.9140625,-0.3046875,9.58203125,[0. 0. 0. 0. 0. 0. 0. 0. 0.]
1742664807348640275,1742664807,345637287,imu_link,-0.01568603515625,0.09832763671875,-0.0013427734375,0.99505615234375,[0. 0. 0. 0. 0. 0. 0. 0. 0.],0.0,-0.001953125,0.0,[0. 0. 0. 0. 0. 0. 0. 0. 0.],-1.9140625,-0.3046875,9.58203125,[0. 0. 0. 0. 0. 0. 0. 0. 0.]
1742664807364749729,1742664807,358158689,imu_link,-0.01568603515625,0.09832763671875,-0.0013427734375,0.99505615234375,[0. 0. 0. 0. 0. 0. 0. 0. 0.],-0.001953125,0.001953125,-0.001953125,[0. 0. 0. 0. 0. 0. 0. 0. 0.],-1.9140625,-0.3046875,9.58203125,[0. 0. 0. 0. 0. 0. 0. 0. 0.]
1742664807392458683,1742664807,378098162,imu_link,-0.01568603515625,0.09832763671875,-0.00128173828125,0.99505615234375,[0. 0. 0. 0. 0. 0. 0. 0. 0.],-0.001953125,0.001953125,-0.001953125,[0. 0. 0. 0. 0. 0. 0. 0. 0.],-1.9140625,-0.3046875,9.58203125,[0. 0. 0. 0. 0. 0. 0. 0. 0.]
1742664807401627464,1742664807,398072801,imu_link,-0.01568603515625,0.09832763671875,-0.00128173828125,0.99505615234375,[0. 0. 0. 0. 0. 0. 0. 0. 0.],-0.001953125,0.001953125,-0.001953125,[0. 0. 0. 0. 0. 0. 0. 0. 0.],-1.9140625,-0.3046875,9.58203125,[0. 0. 0. 0. 0. 0. 0. 0. 0.]
1742664807443167895,1742664807,418111794,imu_link,-0.01568603515625,0.098388671875,-0.00128173828125,0.99505615234375,[0. 0. 0. 0. 0. 0. 0. 0. 0.],-0.001953125,-0.001953125,0.001953125,[0. 0. 0. 0. 0. 0. 0. 0. 0.],-1.87890625,-0.3046875,9.578125,[0. 0. 0. 0. 0. 0. 0. 0. 0.]
1742664807450500779,1742664807,447136360,imu_link,-0.01568603515625,0.098388671875,-0.00128173828125,0.99505615234375,[0. 0. 0. 0. 0. 0. 0. 0. 0.],-0.001953125,-0.001953125,0.001953125,[0. 0. 0. 0. 0. 0. 0. 0. 0.],-1.9140625,-0.3046875,9.58203125,[0. 0. 0. 0. 0. 0. 0. 0. 0.]
1742664807465638589,1742664807,458067480,imu_link,-0.01568603515625,0.098388671875,-0.00128173828125,0.99505615234375,[0. 0. 0. 0. 0. 0. 0. 0. 0.],-0.001953125,0.0,0.0,[0. 0. 0. 0. 0. 0. 0. 0. 0.],-1.9140625,-0.3046875,9.58203125,[0. 0. 0. 0. 0. 0. 0. 0. 0.]
1742664807491891134,1742664807,478075287,imu_link,-0.01568603515625,0.098388671875,-0.0013427734375,0.9949951171875,[0. 0. 0. 0. 0. 0. 0. 0. 0.],-0.001953125,0.0,0.0,[0. 0. 0. 0. 0. 0. 0. 0. 0.],-1.9140625,-0.3046875,9.58203125,[0. 0. 0. 0. 0. 0. 0. 0. 0.]
1742664807508700617,1742664807,498202114,imu_link,-0.01568603515625,0.098388671875,-0.0013427734375,0.9949951171875,[0. 0. 0. 0. 0. 0. 0. 0. 0.],-0.001953125,0.0,0.0,[0. 0. 0. 0. 0. 0. 0. 0. 0.],-1.9140625,-0.3046875,9.58203125,[0. 0. 0. 0. 0. 0. 0. 0. 0.]
1742664807521556024,1742664807,518097437,imu_link,-0.01568603515625,0.098388671875,-0.0013427734375,0.9949951171875,[0. 0. 0. 0. 0. 0. 0. 0. 0.],0.0,0.0,-0.001953125,[0. 0. 0. 0. 0. 0. 0. 0. 0.],-1.9140625,-0.3046875,9.58203125,[0. 0. 0. 0. 0. 0. 0. 0. 0.]
1742664807552124594,1742664807,538172800,imu_link,-0.01568603515625,0.098388671875,-0.0013427734375,0.9949951171875,[0. 0. 0. 0. 0. 0. 0. 0. 0.],0.0,0.0,-0.001953125,[0. 0. 0. 0. 0. 0. 0. 0. 0.],-1.9140625,-0.3046875,9.58203125,[0. 0. 0. 0. 0. 0. 0. 0. 0.]
1742664807569327619,1742664807,558075087,imu_link,-0.01568603515625,0.098388671875,-0.0013427734375,0.9949951171875,[0. 0. 0. 0. 0. 0. 0. 0. 0.],-0.001953125,0.001953125,-0.001953125,[0. 0. 0. 0. 0. 0. 0. 0. 0.],-1.9140625,-0.3046875,9.58203125,[0. 0. 0. 0. 0. 0. 0. 0. 0.]
1742664807591321214,1742664807,578078708,imu_link,-0.01568603515625,0.098388671875,-0.0013427734375,0.9949951171875,[0. 0. 0. 0. 0. 0. 0. 0. 0.],-0.001953125,0.001953125,-0.001953125,[0. 0. 0. 0. 0. 0. 0. 0. 0.],-1.9140625,-0.3046875,9.58203125,[0. 0. 0. 0. 0. 0. 0. 0. 0.]
1742664807608513425,1742664807,598094849,imu_link,-0.01568603515625,0.098388671875,-0.0013427734375,0.9949951171875,[0. 0. 0. 0. 0. 0. 0. 0. 0.],-0.001953125,0.001953125,-0.001953125,[0. 0. 0. 0. 0. 0. 0. 0. 0.],-1.9140625,-0.3046875,9.58203125,[0. 0. 0. 0. 0. 0. 0. 0. 0.]
1742664807621523760,1742664807,618119730,imu_link,-0.01568603515625,0.098388671875,-0.0013427734375,0.9949951171875,[0. 0. 0. 0. 0. 0. 0. 0. 0.],0.0,-0.001953125,0.0,[0. 0. 0. 0. 0. 0. 0. 0. 0.],-1.9140625,-0.3046875,9.58203125,[0. 0. 0. 0. 0. 0. 0. 0. 0.]
1742664807652686079,1742664807,638647970,imu_link,-0.01568603515625,0.098388671875,-0.0013427734375,0.9949951171875,[0. 0. 0. 0. 0. 0. 0. 0. 0.],0.0,-0.001953125,0.0,[0. 0. 0. 0. 0. 0. 0. 0. 0.],-1.9140625,-0.3046875,9.58203125,[0. 0. 0. 0. 0. 0. 0. 0. 0.]
1742664807669544952,1742664807,658074749,imu_link,-0.01568603515625,0.098388671875,-0.0013427734375,0.9949951171875,[0. 0. 0. 0. 0. 0. 0. 0. 0.],0.0,0.001953125,0.0,[0. 0. 0. 0. 0. 0. 0. 0. 0.],-1.9140625,-0.3046875,9.58203125,[0. 0. 0. 0. 0. 0. 0. 0. 0.]
1742664807694615979,1742664807,678166798,imu_link,-0.015625,0.098388671875,-0.00128173828125,0.9949951171875,[0. 0. 0. 0. 0. 0. 0. 0. 0.],0.0,0.001953125,0.0,[0. 0. 0. 0. 0. 0. 0. 0. 0.],-1.9140625,-0.3046875,9.58203125,[0. 0. 0. 0. 0. 0. 0. 0. 0.]
1742664807701392799,1742664807,698059196,imu_link,-0.015625,0.098388671875,-0.00128173828125,0.9949951171875,[0. 0. 0. 0. 0. 0. 0. 0. 0.],0.0,0.001953125,0.0,[0. 0. 0. 0. 0. 0. 0. 0. 0.],-1.9140625,-0.3046875,9.58203125,[0. 0. 0. 0. 0. 0. 0. 0. 0.]
1742664807738967933,1742664807,718153170,imu_link,-0.015625,0.098388671875,-0.00128173828125,0.9949951171875,[0. 0. 0. 0. 0. 0. 0. 0. 0.],-0.001953125,-0.001953125,-0.001953125,[0. 0. 0. 0. 0. 0. 0. 0. 0.],-1.9140625,-0.3046875,9.58203125,[0. 0. 0. 0. 0. 0. 0. 0. 0.]
1742664807743968616,1742664807,742186053,imu_link,-0.015625,0.098388671875,-0.00128173828125,0.9949951171875,[0. 0. 0. 0. 0. 0. 0. 0. 0.],-0.001953125,-0.001953125,-0.001953125,[0. 0. 0. 0. 0. 0. 0. 0. 0.],-1.9140625,-0.3046875,9.58203125,[0. 0. 0. 0. 0. 0. 0. 0. 0.]
1742664807769641282,1742664807,758159561,imu_link,-0.015625,0.098388671875,-0.00128173828125,0.9949951171875,[0. 0. 0. 0. 0. 0. 0. 0. 0.],0.0,0.0,0.0,[0. 0. 0. 0. 0. 0. 0. 0. 0.],-1.9140625,-0.3046875,9.58203125,[0. 0. 0. 0. 0. 0. 0. 0. 0.]
1742664807792120643,1742664807,778082607,imu_link,-0.015625,0.09844970703125,-0.00128173828125,0.9949951171875,[0. 0. 0. 0. 0. 0. 0. 0. 0.],0.0,0.0,0.0,[0. 0. 0. 0. 0. 0. 0. 0. 0.],-1.9140625,-0.3046875,9.58203125,[0. 0. 0. 0. 0. 0. 0. 0. 0.]
1742664807801459240,1742664807,798074877,imu_link,-0.015625,0.09844970703125,-0.00128173828125,0.9949951171875,[0. 0. 0. 0. 0. 0. 0. 0. 0.],0.0,0.0,0.0,[0. 0. 0. 0. 0. 0. 0. 0. 0.],-1.9140625,-0.3046875,9.58203125,[0. 0. 0. 0. 0. 0. 0. 0. 0.]
1742664807838739944,1742664807,818227315,imu_link,-0.015625,0.09844970703125,-0.00128173828125,0.9949951171875,[0. 0. 0. 0. 0. 0. 0. 0. 0.],0.0,0.0,0.0,[0. 0. 0. 0. 0. 0. 0. 0. 0.],-1.9140625,-0.3046875,9.54296875,[0. 0. 0. 0. 0. 0. 0. 0. 0.]
1742664807843163952,1742664807,841413853,imu_link,-0.015625,0.09844970703125,-0.00128173828125,0.9949951171875,[0. 0. 0. 0. 0. 0. 0. 0. 0.],0.0,0.0,0.0,[0. 0. 0. 0. 0. 0. 0. 0. 0.],-1.9140625,-0.3046875,9.54296875,[0. 0. 0. 0. 0. 0. 0. 0. 0.]
1742664807869590184,1742664807,858160668,imu_link,-0.015625,0.09844970703125,-0.00128173828125,0.9949951171875,[0. 0. 0. 0. 0. 0. 0. 0. 0.],0.0,0.0,0.0,[0. 0. 0. 0. 0. 0. 0. 0. 0.],-1.9140625,-0.3046875,9.58203125,[0. 0. 0. 0. 0. 0. 0. 0. 0.]
1742664807892544478,1742664807,878088011,imu_link,-0.015625,0.09844970703125,-0.00128173828125,0.9949951171875,[0. 0. 0. 0. 0. 0. 0. 0. 0.],0.0,0.0,0.0,[0. 0. 0. 0. 0. 0. 0. 0. 0.],-1.9140625,-0.3046875,9.58203125,[0. 0. 0. 0. 0. 0. 0. 0. 0.]
1742664807901569664,1742664807,898088873,imu_link,-0.015625,0.09844970703125,-0.00128173828125,0.9949951171875,[0. 0. 0. 0. 0. 0. 0. 0. 0.],0.0,0.0,0.0,[0. 0. 0. 0. 0. 0. 0. 0. 0.],-1.9140625,-0.3046875,9.58203125,[0. 0. 0. 0. 0. 0. 0. 0. 0.]
1742664807938490066,1742664807,918090309,imu_link,-0.015625,0.09844970703125,-0.00128173828125,0.9949951171875,[0. 0. 0. 0. 0. 0. 0. 0. 0.],0.0,0.0,0.0,[0. 0. 0. 0. 0. 0. 0. 0. 0.],-1.9140625,-0.3046875,9.58203125,[0. 0. 0. 0. 0. 0. 0. 0. 0.]
1742664807947476139,1742664807,940680930,imu_link,-0.015625,0.09844970703125,-0.00128173828125,0.9949951171875,[0. 0. 0. 0. 0. 0. 0. 0. 0.],0.0,0.0,0.0,[0. 0. 0. 0. 0. 0. 0. 0. 0.],-1.9140625,-0.3046875,9.58203125,[0. 0. 0. 0. 0. 0. 0. 0. 0.]
1742664807964839056,1742664807,958081051,imu_link,-0.015625,0.09844970703125,-0.00128173828125,0.9949951171875,[0. 0. 0. 0. 0. 0. 0. 0. 0.],0.0,0.0,0.0,[0. 0. 0. 0. 0. 0. 0. 0. 0.],-1.9140625,-0.3046875,9.58203125,[0. 0. 0. 0. 0. 0. 0. 0. 0.]
1742664807992062522,1742664807,978107099,imu_link,-0.015625,0.09844970703125,-0.00128173828125,0.9949951171875,[0. 0. 0. 0. 0. 0. 0. 0. 0.],0.0,0.0,0.0,[0. 0. 0. 0. 0. 0. 0. 0. 0.],-1.9140625,-0.3046875,9.58203125,[0. 0. 0. 0. 0. 0. 0. 0. 0.]
1742664808001789088,1742664807,998265834,imu_link,-0.015625,0.09844970703125,-0.00128173828125,0.9949951171875,[0. 0. 0. 0. 0. 0. 0. 0. 0.],0.0,0.0,0.0,[0. 0. 0. 0. 0. 0. 0. 0. 0.],-1.9140625,-0.3046875,9.58203125,[0. 0. 0. 0. 0. 0. 0. 0. 0.]
1742664808042326005,1742664808,18102267,imu_link,-0.015625,0.09844970703125,-0.00128173828125,0.9949951171875,[0. 0. 0. 0. 0. 0. 0. 0. 0.],0.0,0.0,0.0,[0. 0. 0. 0. 0. 0. 0. 0. 0.],-1.9140625,-0.3046875,9.58203125,[0. 0. 0. 0. 0. 0. 0. 0. 0.]
1742664808047051684,1742664808,44063252,imu_link,-0.015625,0.09844970703125,-0.00128173828125,0.9949951171875,[0. 0. 0. 0. 0. 0. 0. 0. 0.],0.0,0.0,0.0,[0. 0. 0. 0. 0. 0. 0. 0. 0.],-1.9140625,-0.3046875,9.58203125,[0. 0. 0. 0. 0. 0. 0. 0. 0.]
1742664808064693530,1742664808,58085324,imu_link,-0.015625,0.09844970703125,-0.00128173828125,0.9949951171875,[0. 0. 0. 0. 0. 0. 0. 0. 0.],0.0,0.0,0.0,[0. 0. 0. 0. 0. 0. 0. 0. 0.],-1.9140625,-0.3046875,9.58203125,[0. 0. 0. 0. 0. 0. 0. 0. 0.]
1742664808091556620,1742664808,78136538,imu_link,-0.015625,0.09844970703125,-0.00128173828125,0.9949951171875,[0. 0. 0. 0. 0. 0. 0. 0. 0.],0.0,0.0,0.0,[0. 0. 0. 0. 0. 0. 0. 0. 0.],-1.9140625,-0.3046875,9.58203125,[0. 0. 0. 0. 0. 0. 0. 0. 0.]
1742664808109185281,1742664808,98124974,imu_link,-0.015625,0.09844970703125,-0.00128173828125,0.9949951171875,[0. 0. 0. 0. 0. 0. 0. 0. 0.],0.0,0.0,0.0,[0. 0. 0. 0. 0. 0. 0. 0. 0.],-1.9140625,-0.3046875,9.58203125,[0. 0. 0. 0. 0. 0. 0. 0. 0.]
1742664808121575089,1742664808,118088761,imu_link,-0.015625,0.09844970703125,-0.00128173828125,0.9949951171875,[0. 0. 0. 0. 0. 0. 0. 0. 0.],0.0,0.0,0.0,[0. 0. 0. 0. 0. 0. 0. 0. 0.],-1.9140625,-0.3046875,9.58203125,[0. 0. 0. 0. 0. 0. 0. 0. 0.]
1742664808152320994,1742664808,138389387,imu_link,-0.015625,0.09844970703125,-0.00128173828125,0.9949951171875,[0. 0. 0. 0. 0. 0. 0. 0. 0.],0.0,0.0,0.0,[0. 0. 0. 0. 0. 0. 0. 0. 0.],-1.9140625,-0.3046875,9.58203125,[0. 0. 0. 0. 0. 0. 0. 0. 0.]
1742664808168816935,1742664808,158092189,imu_link,-0.015625,0.09844970703125,-0.00128173828125,0.9949951171875,[0. 0. 0. 0. 0. 0. 0. 0. 0.],0.0,0.0,0.0,[0. 0. 0. 0. 0. 0. 0. 0. 0.],-1.9140625,-0.3046875,9.58203125,[0. 0. 0. 0. 0. 0. 0. 0. 0.]
1742664808191352741,1742664808,178183089,imu_link,-0.015625,0.09844970703125,-0.00128173828125,0.9949951171875,[0. 0. 0. 0. 0. 0. 0. 0. 0.],0.0,0.0,0.0,[0. 0. 0. 0. 0. 0. 0. 0. 0.],-1.9140625,-0.3046875,9.58203125,[0. 0. 0. 0. 0. 0. 0. 0. 0.]
1742664808208375616,1742664808,198149876,imu_link,-0.015625,0.09844970703125,-0.00128173828125,0.9949951171875,[0. 0. 0. 0. 0. 0. 0. 0. 0.],0.0,0.0,0.0,[0. 0. 0. 0. 0. 0. 0. 0. 0.],-1.9140625,-0.3046875,9.58203125,[0. 0. 0. 0. 0. 0. 0. 0. 0.]
1742664808221671288,1742664808,218135441,imu_link,-0.015625,0.09844970703125,-0.00128173828125,0.9949951171875,[0. 0. 0. 0. 0. 0. 0. 0. 0.],0.0,0.0,0.0,[0. 0. 0. 0. 0. 0. 0. 0. 0.],-1.9140625,-0.3046875,9.58203125,[0. 0. 0. 0. 0. 0. 0. 0. 0.]
1742664808251479865,1742664808,238169711,imu_link,-0.015625,0.09844970703125,-0.00128173828125,0.9949951171875,[0. 0. 0. 0. 0. 0. 0. 0. 0.],0.0,0.0,0.0,[0. 0. 0. 0. 0. 0. 0. 0. 0.],-1.9140625,-0.3046875,9.58203125,[0. 0. 0. 0. 0. 0. 0. 0. 0.]
1742664808268757225,1742664808,258081349,imu_link,-0.015625,0.09844970703125,-0.00128173828125,0.9949951171875,[0. 0. 0. 0. 0. 0. 0. 0. 0.],0.0,0.0,0.0,[0. 0. 0. 0. 0. 0. 0. 0. 0.],-1.9140625,-0.3046875,9.58203125,[0. 0. 0. 0. 0. 0. 0. 0. 0.]
1742664808294538207,1742664808,278167083,imu_link,-0.01556396484375,0.09844970703125,-0.00128173828125,0.9949951171875,[0. 0. 0. 0. 0. 0. 0. 0. 0.],0.0,0.0,0.0,[0. 0. 0. 0. 0. 0. 0. 0. 0.],-1.9140625,-0.3046875,9.58203125,[0. 0. 0. 0. 0. 0. 0. 0. 0.]
1742664808301442825,1742664808,298061702,imu_link,-0.01556396484375,0.09844970703125,-0.00128173828125,0.9949951171875,[0. 0. 0. 0. 0. 0. 0. 0. 0.],0.0,0.0,0.0,[0. 0. 0. 0. 0. 0. 0. 0. 0.],-1.9140625,-0.3046875,9.58203125,[0. 0. 0. 0. 0. 0. 0. 0. 0.]
1742664808337817848,1742664808,318201325,imu_link,-0.01556396484375,0.09844970703125,-0.00128173828125,0.9949951171875,[0. 0. 0. 0. 0. 0. 0. 0. 0.],0.0,0.0,0.0,[0. 0. 0. 0. 0. 0. 0. 0. 0.],-1.9140625,-0.3046875,9.58203125,[0. 0. 0. 0. 0. 0. 0. 0. 0.]
1742664808342277542,1742664808,340508183,imu_link,-0.01556396484375,0.09844970703125,-0.00128173828125,0.9949951171875,[0. 0. 0. 0. 0. 0. 0. 0. 0.],0.0,0.0,0.0,[0. 0. 0. 0. 0. 0. 0. 0. 0.],-1.9140625,-0.3046875,9.58203125,[0. 0. 0. 0. 0. 0. 0. 0. 0.]
1742664808368936425,1742664808,358186345,imu_link,-0.01556396484375,0.09844970703125,-0.00128173828125,0.9949951171875,[0. 0. 0. 0. 0. 0. 0. 0. 0.],0.0,0.0,0.0,[0. 0. 0. 0. 0. 0. 0. 0. 0.],-1.9140625,-0.3046875,9.58203125,[0. 0. 0. 0. 0. 0. 0. 0. 0.]
1742664808393968471,1742664808,378164206,imu_link,-0.01556396484375,0.09844970703125,-0.00128173828125,0.9949951171875,[0. 0. 0. 0. 0. 0. 0. 0. 0.],0.0,0.0,0.0,[0. 0. 0. 0. 0. 0. 0. 0. 0.],-1.9140625,-0.3046875,9.58203125,[0. 0. 0. 0. 0. 0. 0. 0. 0.]
1742664808400865051,1742664808,398088011,imu_link,-0.01556396484375,0.09844970703125,-0.00128173828125,0.9949951171875,[0. 0. 0. 0. 0. 0. 0. 0. 0.],0.0,0.0,0.0,[0. 0. 0. 0. 0. 0. 0. 0. 0.],-1.9140625,-0.3046875,9.58203125,[0. 0. 0. 0. 0. 0. 0. 0. 0.]
1742664808439302882,1742664808,418127911,imu_link,-0.01556396484375,0.09844970703125,-0.00128173828125,0.9949951171875,[0. 0. 0. 0. 0. 0. 0. 0. 0.],0.0,0.0,0.0,[0. 0. 0. 0. 0. 0. 0. 0. 0.],-1.9140625,-0.3046875,9.58203125,[0. 0. 0. 0. 0. 0. 0. 0. 0.]
1742664808443271532,1742664808,441522210,imu_link,-0.01556396484375,0.09844970703125,-0.00128173828125,0.9949951171875,[0. 0. 0. 0. 0. 0. 0. 0. 0.],0.0,0.0,0.0,[0. 0. 0. 0. 0. 0. 0. 0. 0.],-1.9140625,-0.3046875,9.58203125,[0. 0. 0. 0. 0. 0. 0. 0. 0.]
1742664808468942512,1742664808,458089930,imu_link,-0.01556396484375,0.09844970703125,-0.00128173828125,0.9949951171875,[0. 0. 0. 0. 0. 0. 0. 0. 0.],0.0,0.0,0.0,[0. 0. 0. 0. 0. 0. 0. 0. 0.],-1.9140625,-0.3046875,9.58203125,[0. 0. 0. 0. 0. 0. 0. 0. 0.]
1742664808491632227,1742664808,478167200,imu_link,-0.01556396484375,0.09844970703125,-0.00128173828125,0.9949951171875,[0. 0. 0. 0. 0. 0. 0. 0. 0.],0.0,0.0,0.0,[0. 0. 0. 0. 0. 0. 0. 0. 0.],-1.9140625,-0.3046875,9.58203125,[0. 0. 0. 0. 0. 0. 0. 0. 0.]
1742664808501220995,1742664808,498284360,imu_link,-0.01556396484375,0.09844970703125,-0.00128173828125,0.9949951171875,[0. 0. 0. 0. 0. 0. 0. 0. 0.],0.0,0.0,0.0,[0. 0. 0. 0. 0. 0. 0. 0. 0.],-1.9140625,-0.3046875,9.58203125,[0. 0. 0. 0. 0. 0. 0. 0. 0.]
1742664808536781173,1742664808,518086238,imu_link,-0.01556396484375,0.09844970703125,-0.00128173828125,0.9949951171875,[0. 0. 0. 0. 0. 0. 0. 0. 0.],0.0,0.0,0.0,[0. 0. 0. 0. 0. 0. 0. 0. 0.],-1.9140625,-0.3046875,9.58203125,[0. 0. 0. 0. 0. 0. 0. 0. 0.]
1742664808541605928,1742664808,539461878,imu_link,-0.01556396484375,0.09844970703125,-0.00128173828125,0.9949951171875,[0. 0. 0. 0. 0. 0. 0. 0. 0.],0.0,0.0,0.0,[0. 0. 0. 0. 0. 0. 0. 0. 0.],-1.9140625,-0.3046875,9.58203125,[0. 0. 0. 0. 0. 0. 0. 0. 0.]
1742664808564711334,1742664808,558120147,imu_link,-0.01556396484375,0.09844970703125,-0.00128173828125,0.9949951171875,[0. 0. 0. 0. 0. 0. 0. 0. 0.],0.0,0.0,0.0,[0. 0. 0. 0. 0. 0. 0. 0. 0.],-1.9140625,-0.3046875,9.58203125,[0. 0. 0. 0. 0. 0. 0. 0. 0.]
1742664808590988286,1742664808,578178843,imu_link,-0.01556396484375,0.09844970703125,-0.00128173828125,0.9949951171875,[0. 0. 0. 0. 0. 0. 0. 0. 0.],0.0,0.0,0.0,[0. 0. 0. 0. 0. 0. 0. 0. 0.],-1.9140625,-0.3046875,9.58203125,[0. 0. 0. 0. 0. 0. 0. 0. 0.]
1742664808600958967,1742664808,598137278,imu_link,-0.01556396484375,0.09844970703125,-0.00128173828125,0.9949951171875,[0. 0. 0. 0. 0. 0. 0. 0. 0.],0.0,0.0,0.0,[0. 0. 0. 0. 0. 0. 0. 0. 0.],-1.9140625,-0.3046875,9.58203125,[0. 0. 0. 0. 0. 0. 0. 0. 0.]
1742664808642952663,1742664808,618141177,imu_link,-0.01556396484375,0.09844970703125,-0.00128173828125,0.9949951171875,[0. 0. 0. 0. 0. 0. 0. 0. 0.],0.0,0.0,0.0,[0. 0. 0. 0. 0. 0. 0. 0. 0.],-1.9140625,-0.3046875,9.58203125,[0. 0. 0. 0. 0. 0. 0. 0. 0.]
1742664808648501336,1742664808,645174899,imu_link,-0.01556396484375,0.09844970703125,-0.00128173828125,0.9949951171875,[0. 0. 0. 0. 0. 0. 0. 0. 0.],0.0,0.0,0.0,[0. 0. 0. 0. 0. 0. 0. 0. 0.],-1.9140625,-0.3046875,9.58203125,[0. 0. 0. 0. 0. 0. 0. 0. 0.]
1742664808663877927,1742664808,658061584,imu_link,-0.01556396484375,0.09844970703125,-0.00128173828125,0.9949951171875,[0. 0. 0. 0. 0. 0. 0. 0. 0.],0.0,0.0,0.0,[0. 0. 0. 0. 0. 0. 0. 0. 0.],-1.9140625,-0.3046875,9.58203125,[0. 0. 0. 0. 0. 0. 0. 0. 0.]
1742664808690973595,1742664808,678250079,imu_link,-0.01556396484375,0.09844970703125,-0.00128173828125,0.9949951171875,[0. 0. 0. 0. 0. 0. 0. 0. 0.],0.0,0.0,0.0,[0. 0. 0. 0. 0. 0. 0. 0. 0.],-1.9140625,-0.3046875,9.58203125,[0. 0. 0. 0. 0. 0. 0. 0. 0.]
1742664808708805648,1742664808,698134716,imu_link,-0.01556396484375,0.09844970703125,-0.00128173828125,0.9949951171875,[0. 0. 0. 0. 0. 0. 0. 0. 0.],0.0,0.0,0.0,[0. 0. 0. 0. 0. 0. 0. 0. 0.],-1.9140625,-0.3046875,9.58203125,[0. 0. 0. 0. 0. 0. 0. 0. 0.]
1742664808721337958,1742664808,718135838,imu_link,-0.01556396484375,0.09844970703125,-0.00128173828125,0.9949951171875,[0. 0. 0. 0. 0. 0. 0. 0. 0.],0.0,0.0,0.0,[0. 0. 0. 0. 0. 0. 0. 0. 0.],-1.9140625,-0.3046875,9.58203125,[0. 0. 0. 0. 0. 0. 0. 0. 0.]
1742664808751444113,1742664808,738170922,imu_link,-0.01556396484375,0.09844970703125,-0.00128173828125,0.9949951171875,[0. 0. 0. 0. 0. 0. 0. 0. 0.],0.0,0.0,0.0,[0. 0. 0. 0. 0. 0. 0. 0. 0.],-1.9140625,-0.3046875,9.58203125,[0. 0. 0. 0. 0. 0. 0. 0. 0.]
1742664808760959750,1742664808,758378824,imu_link,-0.01556396484375,0.09844970703125,-0.00128173828125,0.9949951171875,[0. 0. 0. 0. 0. 0. 0. 0. 0.],0.0,0.0,0.0,[0. 0. 0. 0. 0. 0. 0. 0. 0.],-1.9140625,-0.3046875,9.58203125,[0. 0. 0. 0. 0. 0. 0. 0. 0.]
1742664808791052794,1742664808,778171331,imu_link,-0.01556396484375,0.09844970703125,-0.00128173828125,0.9949951171875,[0. 0. 0. 0. 0. 0. 0. 0. 0.],0.0,0.0,0.0,[0. 0. 0. 0. 0. 0. 0. 0. 0.],-1.9140625,-0.3046875,9.58203125,[0. 0. 0. 0. 0. 0. 0. 0. 0.]
1742664808808822068,1742664808,798085969,imu_link,-0.01556396484375,0.09844970703125,-0.00128173828125,0.9949951171875,[0. 0. 0. 0. 0. 0. 0. 0. 0.],0.0,0.0,0.0,[0. 0. 0. 0. 0. 0. 0. 0. 0.],-1.9140625,-0.3046875,9.58203125,[0. 0. 0. 0. 0. 0. 0. 0. 0.]
1742664808821416916,1742664808,818163165,imu_link,-0.01556396484375,0.09844970703125,-0.00128173828125,0.9949951171875,[0. 0. 0. 0. 0. 0. 0. 0. 0.],0.0,0.0,0.0,[0. 0. 0. 0. 0. 0. 0. 0. 0.],-1.9140625,-0.3046875,9.58203125,[0. 0. 0. 0. 0. 0. 0. 0. 0.]
1742664808850855136,1742664808,838178361,imu_link,-0.01556396484375,0.09844970703125,-0.00128173828125,0.9949951171875,[0. 0. 0. 0. 0. 0. 0. 0. 0.],0.0,0.0,0.0,[0. 0. 0. 0. 0. 0. 0. 0. 0.],-1.9140625,-0.3046875,9.58203125,[0. 0. 0. 0. 0. 0. 0. 0. 0.]
1742664808868178107,1742664808,858136314,imu_link,-0.01556396484375,0.09844970703125,-0.00128173828125,0.9949951171875,[0. 0. 0. 0. 0. 0. 0. 0. 0.],0.0,0.0,0.0,[0. 0. 0. 0. 0. 0. 0. 0. 0.],-1.9140625,-0.3046875,9.58203125,[0. 0. 0. 0. 0. 0. 0. 0. 0.]
1742664808894509801,1742664808,878168158,imu_link,-0.01556396484375,0.09844970703125,-0.00128173828125,0.9949951171875,[0. 0. 0. 0. 0. 0. 0. 0. 0.],0.0,0.0,0.0,[0. 0. 0. 0. 0. 0. 0. 0. 0.],-1.9140625,-0.3046875,9.58203125,[0. 0. 0. 0. 0. 0. 0. 0. 0.]
1742664808900238679,1742664808,898065944,imu_link,-0.01556396484375,0.09844970703125,-0.00128173828125,0.9949951171875,[0. 0. 0. 0. 0. 0. 0. 0. 0.],0.0,0.0,0.0,[0. 0. 0. 0. 0. 0. 0. 0. 0.],-1.9140625,-0.3046875,9.58203125,[0. 0. 0. 0. 0. 0. 0. 0. 0.]
1742664808937879332,1742664808,918090214,imu_link,-0.01556396484375,0.09844970703125,-0.00128173828125,0.9949951171875,[0. 0. 0. 0. 0. 0. 0. 0. 0.],0.0,0.0,0.0,[0. 0. 0. 0. 0. 0. 0. 0. 0.],-1.9140625,-0.3046875,9.58203125,[0. 0. 0. 0. 0. 0. 0. 0. 0.]
1742664808942424194,1742664808,940611871,imu_link,-0.01556396484375,0.09844970703125,-0.00128173828125,0.9949951171875,[0. 0. 0. 0. 0. 0. 0. 0. 0.],0.0,0.0,0.0,[0. 0. 0. 0. 0. 0. 0. 0. 0.],-1.9140625,-0.3046875,9.58203125,[0. 0. 0. 0. 0. 0. 0. 0. 0.]
1742664808969943330,1742664808,958086271,imu_link,-0.01556396484375,0.09844970703125,-0.00128173828125,0.9949951171875,[0. 0. 0. 0. 0. 0. 0. 0. 0.],-0.001953125,-0.001953125,0.0,[0. 0. 0. 0. 0. 0. 0. 0. 0.],-1.9140625,-0.3046875,9.58203125,[0. 0. 0. 0. 0. 0. 0. 0. 0.]
1742664808994445275,1742664808,978175467,imu_link,-0.01556396484375,0.09844970703125,-0.00128173828125,0.9949951171875,[0. 0. 0. 0. 0. 0. 0. 0. 0.],-0.001953125,-0.001953125,0.0,[0. 0. 0. 0. 0. 0. 0. 0. 0.],-1.9140625,-0.3046875,9.58203125,[0. 0. 0. 0. 0. 0. 0. 0. 0.]
1742664809000564252,1742664808,998127106,imu_link,-0.01556396484375,0.09844970703125,-0.00128173828125,0.9949951171875,[0. 0. 0. 0. 0. 0. 0. 0. 0.],-0.001953125,-0.001953125,0.0,[0. 0. 0. 0. 0. 0. 0. 0. 0.],-1.9140625,-0.3046875,9.58203125,[0. 0. 0. 0. 0. 0. 0. 0. 0.]
1742664809034572315,1742664809,18101060,imu_link,-0.01556396484375,0.09844970703125,-0.00128173828125,0.9949951171875,[0. 0. 0. 0. 0. 0. 0. 0. 0.],-0.001953125,-0.001953125,-0.001953125,[0. 0. 0. 0. 0. 0. 0. 0. 0.],-1.9140625,-0.3046875,9.58203125,[0. 0. 0. 0. 0. 0. 0. 0. 0.]
1742664809040258082,1742664809,38073365,imu_link,-0.01556396484375,0.09844970703125,-0.00128173828125,0.9949951171875,[0. 0. 0. 0. 0. 0. 0. 0. 0.],-0.001953125,-0.001953125,-0.001953125,[0. 0. 0. 0. 0. 0. 0. 0. 0.],-1.9140625,-0.3046875,9.58203125,[0. 0. 0. 0. 0. 0. 0. 0. 0.]
1742664809069491594,1742664809,58099134,imu_link,-0.01556396484375,0.09844970703125,-0.00128173828125,0.9949951171875,[0. 0. 0. 0. 0. 0. 0. 0. 0.],-0.001953125,0.0,-0.001953125,[0. 0. 0. 0. 0. 0. 0. 0. 0.],-1.9140625,-0.3046875,9.58203125,[0. 0. 0. 0. 0. 0. 0. 0. 0.]
1742664809090766419,1742664809,78150478,imu_link,-0.01556396484375,0.09844970703125,-0.00128173828125,0.9949951171875,[0. 0. 0. 0. 0. 0. 0. 0. 0.],-0.001953125,0.0,-0.001953125,[0. 0. 0. 0. 0. 0. 0. 0. 0.],-1.9140625,-0.3046875,9.58203125,[0. 0. 0. 0. 0. 0. 0. 0. 0.]
1742664809100281018,1742664809,98086672,imu_link,-0.01556396484375,0.09844970703125,-0.00128173828125,0.9949951171875,[0. 0. 0. 0. 0. 0. 0. 0. 0.],-0.001953125,0.0,-0.001953125,[0. 0. 0. 0. 0. 0. 0. 0. 0.],-1.9140625,-0.3046875,9.58203125,[0. 0. 0. 0. 0. 0. 0. 0. 0.]
1742664809134797477,1742664809,118095941,imu_link,-0.01556396484375,0.09844970703125,-0.00128173828125,0.9949951171875,[0. 0. 0. 0. 0. 0. 0. 0. 0.],0.0,-0.001953125,0.0,[0. 0. 0. 0. 0. 0. 0. 0. 0.],-1.9140625,-0.3046875,9.58203125,[0. 0. 0. 0. 0. 0. 0. 0. 0.]
1742664809140688692,1742664809,138605643,imu_link,-0.01556396484375,0.09844970703125,-0.00128173828125,0.9949951171875,[0. 0. 0. 0. 0. 0. 0. 0. 0.],0.0,-0.001953125,0.0,[0. 0. 0. 0. 0. 0. 0. 0. 0.],-1.9140625,-0.3046875,9.58203125,[0. 0. 0. 0. 0. 0. 0. 0. 0.]
1742664809164928929,1742664809,158093886,imu_link,-0.01556396484375,0.09844970703125,-0.00128173828125,0.9949951171875,[0. 0. 0. 0. 0. 0. 0. 0. 0.],-0.001953125,0.0,0.0,[0. 0. 0. 0. 0. 0. 0. 0. 0.],-1.9140625,-0.3046875,9.58203125,[0. 0. 0. 0. 0. 0. 0. 0. 0.]
1742664809191660461,1742664809,178548847,imu_link,-0.01556396484375,0.0985107421875,-0.00128173828125,0.9949951171875,[0. 0. 0. 0. 0. 0. 0. 0. 0.],-0.001953125,0.0,0.0,[0. 0. 0. 0. 0. 0. 0. 0. 0.],-1.87890625,-0.3046875,9.578125,[0. 0. 0. 0. 0. 0. 0. 0. 0.]
1742664809200362067,1742664809,198102461,imu_link,-0.01556396484375,0.0985107421875,-0.00128173828125,0.9949951171875,[0. 0. 0. 0. 0. 0. 0. 0. 0.],-0.001953125,0.0,0.0,[0. 0. 0. 0. 0. 0. 0. 0. 0.],-1.87890625,-0.3046875,9.578125,[0. 0. 0. 0. 0. 0. 0. 0. 0.]
1742664809220410948,1742664809,218133823,imu_link,-0.01556396484375,0.0985107421875,-0.00128173828125,0.9949951171875,[0. 0. 0. 0. 0. 0. 0. 0. 0.],0.0,0.001953125,0.001953125,[0. 0. 0. 0. 0. 0. 0. 0. 0.],-1.9140625,-0.3046875,9.58203125,[0. 0. 0. 0. 0. 0. 0. 0. 0.]
1742664809256174444,1742664809,238169185,imu_link,-0.01556396484375,0.0985107421875,-0.00128173828125,0.9949951171875,[0. 0. 0. 0. 0. 0. 0. 0. 0.],0.0,0.001953125,0.001953125,[0. 0. 0. 0. 0. 0. 0. 0. 0.],-1.9140625,-0.3046875,9.58203125,[0. 0. 0. 0. 0. 0. 0. 0. 0.]
1742664809260893345,1742664809,258827945,imu_link,-0.01556396484375,0.0985107421875,-0.00128173828125,0.9949951171875,[0. 0. 0. 0. 0. 0. 0. 0. 0.],0.0,0.001953125,-0.001953125,[0. 0. 0. 0. 0. 0. 0. 0. 0.],-1.9140625,-0.3046875,9.58203125,[0. 0. 0. 0. 0. 0. 0. 0. 0.]
1742664809290738977,1742664809,278172037,imu_link,-0.0155029296875,0.0985107421875,-0.001220703125,0.9949951171875,[0. 0. 0. 0. 0. 0. 0. 0. 0.],0.0,0.001953125,-0.001953125,[0. 0. 0. 0. 0. 0. 0. 0. 0.],-1.9140625,-0.3046875,9.58203125,[0. 0. 0. 0. 0. 0. 0. 0. 0.]
1742664809309315781,1742664809,298148324,imu_link,-0.0155029296875,0.0985107421875,-0.001220703125,0.9949951171875,[0. 0. 0. 0. 0. 0. 0. 0. 0.],0.001953125,0.001953125,0.0,[0. 0. 0. 0. 0. 0. 0. 0. 0.],-1.9140625,-0.3046875,9.58203125,[0. 0. 0. 0. 0. 0. 0. 0. 0.]
1742664809320405515,1742664809,318323559,imu_link,-0.0155029296875,0.0985107421875,-0.001220703125,0.9949951171875,[0. 0. 0. 0. 0. 0. 0. 0. 0.],0.001953125,0.001953125,0.0,[0. 0. 0. 0. 0. 0. 0. 0. 0.],-1.9140625,-0.3046875,9.58203125,[0. 0. 0. 0. 0. 0. 0. 0. 0.]
1742664809351207383,1742664809,338153399,imu_link,-0.0155029296875,0.0985107421875,-0.001220703125,0.9949951171875,[0. 0. 0. 0. 0. 0. 0. 0. 0.],0.001953125,0.001953125,0.0,[0. 0. 0. 0. 0. 0. 0. 0. 0.],-1.9140625,-0.3046875,9.58203125,[0. 0. 0. 0. 0. 0. 0. 0. 0.]
1742664809360185382,1742664809,358152575,imu_link,-0.0155029296875,0.0985107421875,-0.001220703125,0.9949951171875,[0. 0. 0. 0. 0. 0. 0. 0. 0.],0.0,0.001953125,0.0,[0. 0. 0. 0. 0. 0. 0. 0. 0.],-1.9140625,-0.3046875,9.58203125,[0. 0. 0. 0. 0. 0. 0. 0. 0.]
1742664809390485540,1742664809,378175511,imu_link,-0.01556396484375,0.0985107421875,-0.001220703125,0.9949951171875,[0. 0. 0. 0. 0. 0. 0. 0. 0.],0.0,0.001953125,0.0,[0. 0. 0. 0. 0. 0. 0. 0. 0.],-1.9140625,-0.3046875,9.58203125,[0. 0. 0. 0. 0. 0. 0. 0. 0.]
1742664809409025103,1742664809,398145872,imu_link,-0.01556396484375,0.0985107421875,-0.001220703125,0.9949951171875,[0. 0. 0. 0. 0. 0. 0. 0. 0.],0.0,0.0,0.0,[0. 0. 0. 0. 0. 0. 0. 0. 0.],-1.9140625,-0.3046875,9.58203125,[0. 0. 0. 0. 0. 0. 0. 0. 0.]
1742664809420098058,1742664809,418174753,imu_link,-0.01556396484375,0.0985107421875,-0.001220703125,0.9949951171875,[0. 0. 0. 0. 0. 0. 0. 0. 0.],0.0,0.0,0.0,[0. 0. 0. 0. 0. 0. 0. 0. 0.],-1.9140625,-0.3046875,9.58203125,[0. 0. 0. 0. 0. 0. 0. 0. 0.]
1742664809454681666,1742664809,438164799,imu_link,-0.01556396484375,0.0985107421875,-0.00128173828125,0.9949951171875,[0. 0. 0. 0. 0. 0. 0. 0. 0.],0.0,0.0,0.0,[0. 0. 0. 0. 0. 0. 0. 0. 0.],-1.87890625,-0.3046875,9.578125,[0. 0. 0. 0. 0. 0. 0. 0. 0.]
1742664809465584804,1742664809,461735379,imu_link,-0.01556396484375,0.0985107421875,-0.00128173828125,0.9949951171875,[0. 0. 0. 0. 0. 0. 0. 0. 0.],0.0,0.001953125,0.0,[0. 0. 0. 0. 0. 0. 0. 0. 0.],-1.9140625,-0.3046875,9.58203125,[0. 0. 0. 0. 0. 0. 0. 0. 0.]
1742664809496106039,1742664809,478154189,imu_link,-0.0155029296875,0.0985107421875,-0.00128173828125,0.9949951171875,[0. 0. 0. 0. 0. 0. 0. 0. 0.],0.0,0.001953125,0.0,[0. 0. 0. 0. 0. 0. 0. 0. 0.],-1.9140625,-0.3046875,9.58203125,[0. 0. 0. 0. 0. 0. 0. 0. 0.]
1742664809504530808,1742664809,499021951,imu_link,-0.0155029296875,0.0985107421875,-0.00128173828125,0.9949951171875,[0. 0. 0. 0. 0. 0. 0. 0. 0.],0.0,0.001953125,0.0,[0. 0. 0. 0. 0. 0. 0. 0. 0.],-1.9140625,-0.3046875,9.58203125,[0. 0. 0. 0. 0. 0. 0. 0. 0.]
1742664809520071328,1742664809,518171541,imu_link,-0.0155029296875,0.0985107421875,-0.00128173828125,0.9949951171875,[0. 0. 0. 0. 0. 0. 0. 0. 0.],0.0,0.0,0.0,[0. 0. 0. 0. 0. 0. 0. 0. 0.],-1.9140625,-0.3046875,9.58203125,[0. 0. 0. 0. 0. 0. 0. 0. 0.]
1742664809539979670,1742664809,538091142,imu_link,-0.0155029296875,0.0985107421875,-0.00128173828125,0.9949951171875,[0. 0. 0. 0. 0. 0. 0. 0. 0.],0.0,0.0,0.0,[0. 0. 0. 0. 0. 0. 0. 0. 0.],-1.9140625,-0.3046875,9.58203125,[0. 0. 0. 0. 0. 0. 0. 0. 0.]
1742664809569095144,1742664809,558095726,imu_link,-0.0155029296875,0.0985107421875,-0.00128173828125,0.9949951171875,[0. 0. 0. 0. 0. 0. 0. 0. 0.],-0.001953125,-0.001953125,-0.00390625,[0. 0. 0. 0. 0. 0. 0. 0. 0.],-1.9140625,-0.3046875,9.58203125,[0. 0. 0. 0. 0. 0. 0. 0. 0.]
1742664809592605741,1742664809,578113458,imu_link,-0.01556396484375,0.0985107421875,-0.00128173828125,0.9949951171875,[0. 0. 0. 0. 0. 0. 0. 0. 0.],-0.001953125,-0.001953125,-0.00390625,[0. 0. 0. 0. 0. 0. 0. 0. 0.],-1.87890625,-0.3046875,9.578125,[0. 0. 0. 0. 0. 0. 0. 0. 0.]
1742664809600672931,1742664809,598062134,imu_link,-0.01556396484375,0.0985107421875,-0.00128173828125,0.9949951171875,[0. 0. 0. 0. 0. 0. 0. 0. 0.],-0.001953125,-0.001953125,-0.00390625,[0. 0. 0. 0. 0. 0. 0. 0. 0.],-1.87890625,-0.3046875,9.578125,[0. 0. 0. 0. 0. 0. 0. 0. 0.]
1742664809633891593,1742664809,618167608,imu_link,-0.0155029296875,0.0985107421875,-0.00128173828125,0.9949951171875,[0. 0. 0. 0. 0. 0. 0. 0. 0.],0.0,0.0,0.0,[0. 0. 0. 0. 0. 0. 0. 0. 0.],-1.9140625,-0.3046875,9.58203125,[0. 0. 0. 0. 0. 0. 0. 0. 0.]
1742664809640115683,1742664809,638191747,imu_link,-0.0155029296875,0.0985107421875,-0.00128173828125,0.9949951171875,[0. 0. 0. 0. 0. 0. 0. 0. 0.],0.0,0.0,0.0,[0. 0. 0. 0. 0. 0. 0. 0. 0.],-1.9140625,-0.3046875,9.58203125,[0. 0. 0. 0. 0. 0. 0. 0. 0.]
1742664809669196563,1742664809,658096478,imu_link,-0.0155029296875,0.0985107421875,-0.00128173828125,0.9949951171875,[0. 0. 0. 0. 0. 0. 0. 0. 0.],-0.001953125,0.0,-0.001953125,[0. 0. 0. 0. 0. 0. 0. 0. 0.],-1.9140625,-0.3046875,9.58203125,[0. 0. 0. 0. 0. 0. 0. 0. 0.]
1742664809690970173,1742664809,678120395,imu_link,-0.0155029296875,0.09844970703125,-0.00128173828125,0.9949951171875,[0. 0. 0. 0. 0. 0. 0. 0. 0.],-0.001953125,0.0,-0.001953125,[0. 0. 0. 0. 0. 0. 0. 0. 0.],-1.9140625,-0.3046875,9.58203125,[0. 0. 0. 0. 0. 0. 0. 0. 0.]
1742664809699864597,1742664809,698096905,imu_link,-0.0155029296875,0.09844970703125,-0.00128173828125,0.9949951171875,[0. 0. 0. 0. 0. 0. 0. 0. 0.],-0.001953125,0.0,-0.001953125,[0. 0. 0. 0. 0. 0. 0. 0. 0.],-1.9140625,-0.3046875,9.58203125,[0. 0. 0. 0. 0. 0. 0. 0. 0.]
1742664809733555655,1742664809,718171008,imu_link,-0.0155029296875,0.09844970703125,-0.001220703125,0.9949951171875,[0. 0. 0. 0. 0. 0. 0. 0. 0.],0.001953125,0.001953125,0.00390625,[0. 0. 0. 0. 0. 0. 0. 0. 0.],-1.9140625,-0.3046875,9.58203125,[0. 0. 0. 0. 0. 0. 0. 0. 0.]
1742664809739814893,1742664809,738057775,imu_link,-0.0155029296875,0.09844970703125,-0.001220703125,0.9949951171875,[0. 0. 0. 0. 0. 0. 0. 0. 0.],0.001953125,0.001953125,0.00390625,[0. 0. 0. 0. 0. 0. 0. 0. 0.],-1.9140625,-0.3046875,9.58203125,[0. 0. 0. 0. 0. 0. 0. 0. 0.]
1742664809769022109,1742664809,758137008,imu_link,-0.0155029296875,0.09844970703125,-0.001220703125,0.9949951171875,[0. 0. 0. 0. 0. 0. 0. 0. 0.],0.0,0.001953125,0.0,[0. 0. 0. 0. 0. 0. 0. 0. 0.],-1.9140625,-0.3046875,9.58203125,[0. 0. 0. 0. 0. 0. 0. 0. 0.]
1742664809790797051,1742664809,778093239,imu_link,-0.0155029296875,0.09844970703125,-0.001220703125,0.9949951171875,[0. 0. 0. 0. 0. 0. 0. 0. 0.],0.0,0.001953125,0.0,[0. 0. 0. 0. 0. 0. 0. 0. 0.],-1.9140625,-0.3046875,9.58203125,[0. 0. 0. 0. 0. 0. 0. 0. 0.]
1742664809799943090,1742664809,798119101,imu_link,-0.0155029296875,0.09844970703125,-0.001220703125,0.9949951171875,[0. 0. 0. 0. 0. 0. 0. 0. 0.],0.0,0.001953125,0.0,[0. 0. 0. 0. 0. 0. 0. 0. 0.],-1.9140625,-0.3046875,9.58203125,[0. 0. 0. 0. 0. 0. 0. 0. 0.]
1742664809820358532,1742664809,818346521,imu_link,-0.0155029296875,0.09844970703125,-0.001220703125,0.9949951171875,[0. 0. 0. 0. 0. 0. 0. 0. 0.],-0.001953125,0.0,0.0,[0. 0. 0. 0. 0. 0. 0. 0. 0.],-1.9140625,-0.3046875,9.58203125,[0. 0. 0. 0. 0. 0. 0. 0. 0.]
1742664809844916199,1742664809,838134009,imu_link,-0.0155029296875,0.098388671875,-0.00128173828125,0.99505615234375,[0. 0. 0. 0. 0. 0. 0. 0. 0.],-0.001953125,0.0,0.0,[0. 0. 0. 0. 0. 0. 0. 0. 0.],-1.9140625,-0.3046875,9.58203125,[0. 0. 0. 0. 0. 0. 0. 0. 0.]
1742664809865021062,1742664809,858123241,imu_link,-0.0155029296875,0.098388671875,-0.00128173828125,0.99505615234375,[0. 0. 0. 0. 0. 0. 0. 0. 0.],0.0,0.001953125,0.001953125,[0. 0. 0. 0. 0. 0. 0. 0. 0.],-1.9140625,-0.3046875,9.58203125,[0. 0. 0. 0. 0. 0. 0. 0. 0.]
1742664809884562454,1742664809,880627601,imu_link,-0.0155029296875,0.098388671875,-0.00128173828125,0.99505615234375,[0. 0. 0. 0. 0. 0. 0. 0. 0.],0.0,0.001953125,0.001953125,[0. 0. 0. 0. 0. 0. 0. 0. 0.],-1.9140625,-0.3046875,9.58203125,[0. 0. 0. 0. 0. 0. 0. 0. 0.]
1742664809908898119,1742664809,898160946,imu_link,-0.0155029296875,0.098388671875,-0.00128173828125,0.99505615234375,[0. 0. 0. 0. 0. 0. 0. 0. 0.],0.0,0.0,0.0,[0. 0. 0. 0. 0. 0. 0. 0. 0.],-1.9140625,-0.3046875,9.58203125,[0. 0. 0. 0. 0. 0. 0. 0. 0.]
1742664809920063112,1742664809,918170326,imu_link,-0.0155029296875,0.098388671875,-0.00128173828125,0.99505615234375,[0. 0. 0. 0. 0. 0. 0. 0. 0.],0.0,0.0,0.0,[0. 0. 0. 0. 0. 0. 0. 0. 0.],-1.9140625,-0.3046875,9.58203125,[0. 0. 0. 0. 0. 0. 0. 0. 0.]
1742664809944749263,1742664809,938084557,imu_link,-0.0155029296875,0.098388671875,-0.001220703125,0.99505615234375,[0. 0. 0. 0. 0. 0. 0. 0. 0.],0.0,0.0,0.0,[0. 0. 0. 0. 0. 0. 0. 0. 0.],-1.9140625,-0.3046875,9.58203125,[0. 0. 0. 0. 0. 0. 0. 0. 0.]
1742664809968141600,1742664809,958089029,imu_link,-0.0155029296875,0.098388671875,-0.001220703125,0.99505615234375,[0. 0. 0. 0. 0. 0. 0. 0. 0.],0.0,0.001953125,0.0,[0. 0. 0. 0. 0. 0. 0. 0. 0.],-1.9140625,-0.3046875,9.58203125,[0. 0. 0. 0. 0. 0. 0. 0. 0.]
1742664809988871342,1742664809,978133706,imu_link,-0.0155029296875,0.098388671875,-0.001220703125,0.99505615234375,[0. 0. 0. 0. 0. 0. 0. 0. 0.],0.0,0.001953125,0.0,[0. 0. 0. 0. 0. 0. 0. 0. 0.],-1.9140625,-0.3046875,9.58203125,[0. 0. 0. 0. 0. 0. 0. 0. 0.]
1742664810009143281,1742664809,998218458,imu_link,-0.0155029296875,0.098388671875,-0.001220703125,0.99505615234375,[0. 0. 0. 0. 0. 0. 0. 0. 0.],-0.001953125,-0.001953125,0.0,[0. 0. 0. 0. 0. 0. 0. 0. 0.],-1.9140625,-0.3046875,9.58203125,[0. 0. 0. 0. 0. 0. 0. 0. 0.]
1742664810020036512,1742664810,18170948,imu_link,-0.0155029296875,0.098388671875,-0.001220703125,0.99505615234375,[0. 0. 0. 0. 0. 0. 0. 0. 0.],-0.001953125,-0.001953125,0.0,[0. 0. 0. 0. 0. 0. 0. 0. 0.],-1.9140625,-0.3046875,9.58203125,[0. 0. 0. 0. 0. 0. 0. 0. 0.]
1742664810039974779,1742664810,38124530,imu_link,-0.0155029296875,0.098388671875,-0.001220703125,0.99505615234375,[0. 0. 0. 0. 0. 0. 0. 0. 0.],-0.001953125,-0.001953125,0.0,[0. 0. 0. 0. 0. 0. 0. 0. 0.],-1.9140625,-0.3046875,9.58203125,[0. 0. 0. 0. 0. 0. 0. 0. 0.]
1742664810068721136,1742664810,58091576,imu_link,-0.0155029296875,0.098388671875,-0.001220703125,0.99505615234375,[0. 0. 0. 0. 0. 0. 0. 0. 0.],0.0,0.001953125,0.0,[0. 0. 0. 0. 0. 0. 0. 0. 0.],-1.9140625,-0.3046875,9.58203125,[0. 0. 0. 0. 0. 0. 0. 0. 0.]
1742664810094643286,1742664810,78104975,imu_link,-0.0155029296875,0.098388671875,-0.001220703125,0.99505615234375,[0. 0. 0. 0. 0. 0. 0. 0. 0.],0.0,0.001953125,0.0,[0. 0. 0. 0. 0. 0. 0. 0. 0.],-1.9140625,-0.3046875,9.58203125,[0. 0. 0. 0. 0. 0. 0. 0. 0.]
1742664810104275498,1742664810,98057483,imu_link,-0.0155029296875,0.098388671875,-0.001220703125,0.99505615234375,[0. 0. 0. 0. 0. 0. 0. 0. 0.],0.0,0.001953125,0.0,[0. 0. 0. 0. 0. 0. 0. 0. 0.],-1.9140625,-0.3046875,9.58203125,[0. 0. 0. 0. 0. 0. 0. 0. 0.]
1742664810120059614,1742664810,118160827,imu_link,-0.0155029296875,0.098388671875,-0.001220703125,0.99505615234375,[0. 0. 0. 0. 0. 0. 0. 0. 0.],0.00390625,0.001953125,-0.001953125,[0. 0. 0. 0. 0. 0. 0. 0. 0.],-1.9140625,-0.3046875,9.58203125,[0. 0. 0. 0. 0. 0. 0. 0. 0.]
1742664810140090494,1742664810,138109558,imu_link,-0.0155029296875,0.098388671875,-0.001220703125,0.9949951171875,[0. 0. 0. 0. 0. 0. 0. 0. 0.],0.00390625,0.001953125,-0.001953125,[0. 0. 0. 0. 0. 0. 0. 0. 0.],-1.9140625,-0.3046875,9.58203125,[0. 0. 0. 0. 0. 0. 0. 0. 0.]
1742664810168644033,1742664810,158085919,imu_link,-0.0155029296875,0.098388671875,-0.001220703125,0.9949951171875,[0. 0. 0. 0. 0. 0. 0. 0. 0.],0.0,0.0,0.0,[0. 0. 0. 0. 0. 0. 0. 0. 0.],-1.9140625,-0.3046875,9.58203125,[0. 0. 0. 0. 0. 0. 0. 0. 0.]
1742664810191209246,1742664810,178100928,imu_link,-0.0155029296875,0.098388671875,-0.001220703125,0.9949951171875,[0. 0. 0. 0. 0. 0. 0. 0. 0.],0.0,0.0,0.0,[0. 0. 0. 0. 0. 0. 0. 0. 0.],-1.9140625,-0.3046875,9.58203125,[0. 0. 0. 0. 0. 0. 0. 0. 0.]
1742664810204184969,1742664810,198095049,imu_link,-0.0155029296875,0.098388671875,-0.001220703125,0.9949951171875,[0. 0. 0. 0. 0. 0. 0. 0. 0.],0.0,0.0,0.0,[0. 0. 0. 0. 0. 0. 0. 0. 0.],-1.9140625,-0.3046875,9.58203125,[0. 0. 0. 0. 0. 0. 0. 0. 0.]
1742664810233928767,1742664810,218172392,imu_link,-0.0155029296875,0.098388671875,-0.001220703125,0.9949951171875,[0. 0. 0. 0. 0. 0. 0. 0. 0.],0.0,0.0,0.0,[0. 0. 0. 0. 0. 0. 0. 0. 0.],-1.9140625,-0.3046875,9.58203125,[0. 0. 0. 0. 0. 0. 0. 0. 0.]
1742664810241140555,1742664810,238067104,imu_link,-0.0155029296875,0.098388671875,-0.001220703125,0.9949951171875,[0. 0. 0. 0. 0. 0. 0. 0. 0.],0.0,0.0,0.0,[0. 0. 0. 0. 0. 0. 0. 0. 0.],-1.9140625,-0.3046875,9.58203125,[0. 0. 0. 0. 0. 0. 0. 0. 0.]
1742664810269570112,1742664810,258136262,imu_link,-0.0155029296875,0.098388671875,-0.001220703125,0.9949951171875,[0. 0. 0. 0. 0. 0. 0. 0. 0.],0.0,0.0,0.0,[0. 0. 0. 0. 0. 0. 0. 0. 0.],-1.9140625,-0.3046875,9.58203125,[0. 0. 0. 0. 0. 0. 0. 0. 0.]
1742664810287837596,1742664810,284965555,imu_link,-0.0155029296875,0.098388671875,-0.001220703125,0.9949951171875,[0. 0. 0. 0. 0. 0. 0. 0. 0.],0.0,0.0,0.0,[0. 0. 0. 0. 0. 0. 0. 0. 0.],-1.9140625,-0.3046875,9.58203125,[0. 0. 0. 0. 0. 0. 0. 0. 0.]
1742664810304292499,1742664810,298141133,imu_link,-0.0155029296875,0.098388671875,-0.001220703125,0.9949951171875,[0. 0. 0. 0. 0. 0. 0. 0. 0.],0.0,0.0,0.0,[0. 0. 0. 0. 0. 0. 0. 0. 0.],-1.9140625,-0.3046875,9.58203125,[0. 0. 0. 0. 0. 0. 0. 0. 0.]
1742664810330819565,1742664810,318327737,imu_link,-0.0155029296875,0.09844970703125,-0.001220703125,0.9949951171875,[0. 0. 0. 0. 0. 0. 0. 0. 0.],0.0,0.0,0.0,[0. 0. 0. 0. 0. 0. 0. 0. 0.],-1.87890625,-0.3046875,9.578125,[0. 0. 0. 0. 0. 0. 0. 0. 0.]
1742664810339890806,1742664810,338112318,imu_link,-0.0155029296875,0.09844970703125,-0.001220703125,0.9949951171875,[0. 0. 0. 0. 0. 0. 0. 0. 0.],0.0,0.0,0.0,[0. 0. 0. 0. 0. 0. 0. 0. 0.],-1.87890625,-0.3046875,9.578125,[0. 0. 0. 0. 0. 0. 0. 0. 0.]
1742664810364892554,1742664810,358176606,imu_link,-0.0155029296875,0.09844970703125,-0.001220703125,0.9949951171875,[0. 0. 0. 0. 0. 0. 0. 0. 0.],0.0,0.0,0.0,[0. 0. 0. 0. 0. 0. 0. 0. 0.],-1.9140625,-0.3046875,9.58203125,[0. 0. 0. 0. 0. 0. 0. 0. 0.]
1742664810391814662,1742664810,378114818,imu_link,-0.0155029296875,0.09844970703125,-0.001220703125,0.9949951171875,[0. 0. 0. 0. 0. 0. 0. 0. 0.],0.0,0.0,0.0,[0. 0. 0. 0. 0. 0. 0. 0. 0.],-1.9140625,-0.3046875,9.58203125,[0. 0. 0. 0. 0. 0. 0. 0. 0.]
1742664810408011247,1742664810,398104808,imu_link,-0.0155029296875,0.09844970703125,-0.001220703125,0.9949951171875,[0. 0. 0. 0. 0. 0. 0. 0. 0.],0.0,0.0,0.0,[0. 0. 0. 0. 0. 0. 0. 0. 0.],-1.9140625,-0.3046875,9.58203125,[0. 0. 0. 0. 0. 0. 0. 0. 0.]
1742664810429728558,1742664810,418099003,imu_link,-0.0155029296875,0.09844970703125,-0.001220703125,0.9949951171875,[0. 0. 0. 0. 0. 0. 0. 0. 0.],0.0,0.0,0.0,[0. 0. 0. 0. 0. 0. 0. 0. 0.],-1.9140625,-0.3046875,9.58203125,[0. 0. 0. 0. 0. 0. 0. 0. 0.]
1742664810444908424,1742664810,438180828,imu_link,-0.0155029296875,0.09844970703125,-0.001220703125,0.9949951171875,[0. 0. 0. 0. 0. 0. 0. 0. 0.],0.0,0.0,0.0,[0. 0. 0. 0. 0. 0. 0. 0. 0.],-1.9140625,-0.3046875,9.58203125,[0. 0. 0. 0. 0. 0. 0. 0. 0.]
1742664810465820132,1742664810,458200226,imu_link,-0.0155029296875,0.09844970703125,-0.001220703125,0.9949951171875,[0. 0. 0. 0. 0. 0. 0. 0. 0.],0.0,0.0,0.0,[0. 0. 0. 0. 0. 0. 0. 0. 0.],-1.9140625,-0.3046875,9.58203125,[0. 0. 0. 0. 0. 0. 0. 0. 0.]
1742664810483387477,1742664810,480034762,imu_link,-0.0155029296875,0.09844970703125,-0.001220703125,0.9949951171875,[0. 0. 0. 0. 0. 0. 0. 0. 0.],0.0,0.0,0.0,[0. 0. 0. 0. 0. 0. 0. 0. 0.],-1.9140625,-0.3046875,9.58203125,[0. 0. 0. 0. 0. 0. 0. 0. 0.]
1742664810508298853,1742664810,498294468,imu_link,-0.0155029296875,0.09844970703125,-0.001220703125,0.9949951171875,[0. 0. 0. 0. 0. 0. 0. 0. 0.],0.0,0.0,0.0,[0. 0. 0. 0. 0. 0. 0. 0. 0.],-1.83984375,-0.3828125,9.54296875,[0. 0. 0. 0. 0. 0. 0. 0. 0.]
1742664810528839944,1742664810,518076567,imu_link,-0.0155029296875,0.09844970703125,-0.001220703125,0.9949951171875,[0. 0. 0. 0. 0. 0. 0. 0. 0.],0.0,0.0,0.0,[0. 0. 0. 0. 0. 0. 0. 0. 0.],-1.83984375,-0.3828125,9.54296875,[0. 0. 0. 0. 0. 0. 0. 0. 0.]
1742664810545575536,1742664810,538133281,imu_link,-0.0155029296875,0.09844970703125,-0.001220703125,0.9949951171875,[0. 0. 0. 0. 0. 0. 0. 0. 0.],0.0,0.0,0.0,[0. 0. 0. 0. 0. 0. 0. 0. 0.],-1.41796875,-0.53515625,9.58203125,[0. 0. 0. 0. 0. 0. 0. 0. 0.]
1742664810569023113,1742664810,558169772,imu_link,-0.0155029296875,0.09844970703125,-0.001220703125,0.9949951171875,[0. 0. 0. 0. 0. 0. 0. 0. 0.],0.021484375,-0.00390625,0.048828125,[0. 0. 0. 0. 0. 0. 0. 0. 0.],-1.07421875,-0.57421875,9.609375,[0. 0. 0. 0. 0. 0. 0. 0. 0.]
1742664810584333740,1742664810,580931617,imu_link,-0.01507568359375,0.098388671875,-0.000244140625,0.99505615234375,[0. 0. 0. 0. 0. 0. 0. 0. 0.],0.021484375,-0.00390625,0.048828125,[0. 0. 0. 0. 0. 0. 0. 0. 0.],-1.07421875,-0.57421875,9.609375,[0. 0. 0. 0. 0. 0. 0. 0. 0.]
1742664810609314229,1742664810,598095234,imu_link,-0.01507568359375,0.098388671875,-0.000244140625,0.99505615234375,[0. 0. 0. 0. 0. 0. 0. 0. 0.],-0.001953125,0.00390625,0.06640625,[0. 0. 0. 0. 0. 0. 0. 0. 0.],-0.53515625,-0.53515625,9.69140625,[0. 0. 0. 0. 0. 0. 0. 0. 0.]
1742664810634560202,1742664810,618097521,imu_link,-0.0150146484375,0.09820556640625,0.0013427734375,0.99505615234375,[0. 0. 0. 0. 0. 0. 0. 0. 0.],-0.001953125,0.00390625,0.06640625,[0. 0. 0. 0. 0. 0. 0. 0. 0.],-0.53515625,-0.53515625,9.69140625,[0. 0. 0. 0. 0. 0. 0. 0. 0.]
1742664810640771254,1742664810,638100697,imu_link,-0.0150146484375,0.09820556640625,0.0013427734375,0.99505615234375,[0. 0. 0. 0. 0. 0. 0. 0. 0.],-0.001953125,0.00390625,0.06640625,[0. 0. 0. 0. 0. 0. 0. 0. 0.],-0.421875,-0.3828125,9.6875,[0. 0. 0. 0. 0. 0. 0. 0. 0.]
1742664810679133027,1742664810,658181615,imu_link,-0.0152587890625,0.09808349609375,0.002197265625,0.99505615234375,[0. 0. 0. 0. 0. 0. 0. 0. 0.],-0.005859375,0.005859375,0.02734375,[0. 0. 0. 0. 0. 0. 0. 0. 0.],-0.34375,-0.3828125,9.609375,[0. 0. 0. 0. 0. 0. 0. 0. 0.]
1742664810685515970,1742664810,681856344,imu_link,-0.0152587890625,0.09808349609375,0.002197265625,0.99505615234375,[0. 0. 0. 0. 0. 0. 0. 0. 0.],-0.005859375,0.005859375,0.02734375,[0. 0. 0. 0. 0. 0. 0. 0. 0.],-0.34375,-0.3828125,9.609375,[0. 0. 0. 0. 0. 0. 0. 0. 0.]
1742664810708776267,1742664810,698113077,imu_link,-0.0152587890625,0.09808349609375,0.002197265625,0.99505615234375,[0. 0. 0. 0. 0. 0. 0. 0. 0.],-0.01953125,0.009765625,0.07421875,[0. 0. 0. 0. 0. 0. 0. 0. 0.],-0.765625,-0.23046875,9.6484375,[0. 0. 0. 0. 0. 0. 0. 0. 0.]
1742664810731820765,1742664810,718132050,imu_link,-0.015625,0.0980224609375,0.00390625,0.99505615234375,[0. 0. 0. 0. 0. 0. 0. 0. 0.],-0.01953125,0.009765625,0.07421875,[0. 0. 0. 0. 0. 0. 0. 0. 0.],-0.765625,-0.23046875,9.6484375,[0. 0. 0. 0. 0. 0. 0. 0. 0.]
1742664810740448000,1742664810,738067039,imu_link,-0.015625,0.0980224609375,0.00390625,0.99505615234375,[0. 0. 0. 0. 0. 0. 0. 0. 0.],-0.01953125,0.009765625,0.07421875,[0. 0. 0. 0. 0. 0. 0. 0. 0.],-1.609375,-0.0390625,9.5390625,[0. 0. 0. 0. 0. 0. 0. 0. 0.]
1742664810778329543,1742664810,758166791,imu_link,-0.0157470703125,0.097900390625,0.0050048828125,0.99505615234375,[0. 0. 0. 0. 0. 0. 0. 0. 0.],-0.0078125,0.005859375,0.04296875,[0. 0. 0. 0. 0. 0. 0. 0. 0.],-2.0703125,-0.078125,9.609375,[0. 0. 0. 0. 0. 0. 0. 0. 0.]
1742664810787605713,1742664810,780628280,imu_link,-0.0157470703125,0.097900390625,0.0050048828125,0.99505615234375,[0. 0. 0. 0. 0. 0. 0. 0. 0.],-0.0078125,0.005859375,0.04296875,[0. 0. 0. 0. 0. 0. 0. 0. 0.],-2.0703125,-0.078125,9.609375,[0. 0. 0. 0. 0. 0. 0. 0. 0.]
1742664810805655639,1742664810,798103642,imu_link,-0.0157470703125,0.097900390625,0.0050048828125,0.99505615234375,[0. 0. 0. 0. 0. 0. 0. 0. 0.],0.00390625,0.005859375,0.029296875,[0. 0. 0. 0. 0. 0. 0. 0. 0.],-2.22265625,-0.19140625,9.4609375,[0. 0. 0. 0. 0. 0. 0. 0. 0.]
1742664810832711972,1742664810,818229153,imu_link,-0.0157470703125,0.09765625,0.0057373046875,0.99505615234375,[0. 0. 0. 0. 0. 0. 0. 0. 0.],0.00390625,0.005859375,0.029296875,[0. 0. 0. 0. 0. 0. 0. 0. 0.],-2.18359375,-0.23046875,9.54296875,[0. 0. 0. 0. 0. 0. 0. 0. 0.]
1742664810841218112,1742664810,838088605,imu_link,-0.0157470703125,0.09765625,0.0057373046875,0.99505615234375,[0. 0. 0. 0. 0. 0. 0. 0. 0.],0.00390625,0.005859375,0.029296875,[0. 0. 0. 0. 0. 0. 0. 0. 0.],-2.18359375,-0.23046875,9.54296875,[0. 0. 0. 0. 0. 0. 0. 0. 0.]
1742664810877655821,1742664810,858230171,imu_link,-0.0159912109375,0.09747314453125,0.005859375,0.9951171875,[0. 0. 0. 0. 0. 0. 0. 0. 0.],0.0,0.005859375,0.00390625,[0. 0. 0. 0. 0. 0. 0. 0. 0.],-2.375,-0.15234375,9.578125,[0. 0. 0. 0. 0. 0. 0. 0. 0.]
1742664810887264866,1742664810,879493662,imu_link,-0.0159912109375,0.09747314453125,0.005859375,0.9951171875,[0. 0. 0. 0. 0. 0. 0. 0. 0.],0.0,0.005859375,0.00390625,[0. 0. 0. 0. 0. 0. 0. 0. 0.],-2.48828125,-0.0390625,9.5390625,[0. 0. 0. 0. 0. 0. 0. 0. 0.]
1742664810905916800,1742664810,898106429,imu_link,-0.0159912109375,0.09747314453125,0.005859375,0.9951171875,[0. 0. 0. 0. 0. 0. 0. 0. 0.],-0.00390625,0.005859375,-0.037109375,[0. 0. 0. 0. 0. 0. 0. 0. 0.],-2.48828125,-0.0390625,9.5390625,[0. 0. 0. 0. 0. 0. 0. 0. 0.]
1742664810932351976,1742664810,918117383,imu_link,-0.016357421875,0.09722900390625,0.00506591796875,0.9951171875,[0. 0. 0. 0. 0. 0. 0. 0. 0.],-0.00390625,0.005859375,-0.037109375,[0. 0. 0. 0. 0. 0. 0. 0. 0.],-2.453125,-0.11328125,9.578125,[0. 0. 0. 0. 0. 0. 0. 0. 0.]
1742664810945543425,1742664810,938060299,imu_link,-0.016357421875,0.09722900390625,0.00506591796875,0.9951171875,[0. 0. 0. 0. 0. 0. 0. 0. 0.],-0.00390625,0.005859375,-0.037109375,[0. 0. 0. 0. 0. 0. 0. 0. 0.],-2.453125,-0.11328125,9.578125,[0. 0. 0. 0. 0. 0. 0. 0. 0.]
1742664810966032811,1742664810,958188736,imu_link,-0.016357421875,0.09722900390625,0.00506591796875,0.9951171875,[0. 0. 0. 0. 0. 0. 0. 0. 0.],-0.00390625,0.005859375,-0.03125,[0. 0. 0. 0. 0. 0. 0. 0. 0.],-2.296875,-0.23046875,9.5,[0. 0. 0. 0. 0. 0. 0. 0. 0.]
1742664810993070366,1742664810,978104744,imu_link,-0.01666259765625,0.09698486328125,0.00421142578125,0.9951171875,[0. 0. 0. 0. 0. 0. 0. 0. 0.],-0.00390625,0.005859375,-0.03125,[0. 0. 0. 0. 0. 0. 0. 0. 0.],-2.18359375,-0.3046875,9.54296875,[0. 0. 0. 0. 0. 0. 0. 0. 0.]
1742664811010552432,1742664810,998218847,imu_link,-0.01666259765625,0.09698486328125,0.00421142578125,0.9951171875,[0. 0. 0. 0. 0. 0. 0. 0. 0.],-0.0078125,0.001953125,-0.03515625,[0. 0. 0. 0. 0. 0. 0. 0. 0.],-2.18359375,-0.3828125,9.578125,[0. 0. 0. 0. 0. 0. 0. 0. 0.]
1742664811032739139,1742664811,18080873,imu_link,-0.0169677734375,0.09661865234375,0.00335693359375,0.99517822265625,[0. 0. 0. 0. 0. 0. 0. 0. 0.],-0.0078125,0.001953125,-0.03515625,[0. 0. 0. 0. 0. 0. 0. 0. 0.],-2.18359375,-0.3828125,9.578125,[0. 0. 0. 0. 0. 0. 0. 0. 0.]
1742664811042238386,1742664811,38847615,imu_link,-0.0169677734375,0.09661865234375,0.00335693359375,0.99517822265625,[0. 0. 0. 0. 0. 0. 0. 0. 0.],-0.0078125,0.001953125,-0.03515625,[0. 0. 0. 0. 0. 0. 0. 0. 0.],-2.14453125,-0.421875,9.50390625,[0. 0. 0. 0. 0. 0. 0. 0. 0.]
1742664811066427307,1742664811,58170948,imu_link,-0.0169677734375,0.09661865234375,0.00335693359375,0.99517822265625,[0. 0. 0. 0. 0. 0. 0. 0. 0.],0.001953125,0.001953125,-0.029296875,[0. 0. 0. 0. 0. 0. 0. 0. 0.],-2.14453125,-0.421875,9.50390625,[0. 0. 0. 0. 0. 0. 0. 0. 0.]
1742664811085516062,1742664811,82105513,imu_link,-0.01708984375,0.09625244140625,0.00262451171875,0.99517822265625,[0. 0. 0. 0. 0. 0. 0. 0. 0.],0.001953125,0.001953125,-0.029296875,[0. 0. 0. 0. 0. 0. 0. 0. 0.],-2.03125,-0.4609375,9.61328125,[0. 0. 0. 0. 0. 0. 0. 0. 0.]
1742664811110433512,1742664811,98112242,imu_link,-0.01708984375,0.09625244140625,0.00262451171875,0.99517822265625,[0. 0. 0. 0. 0. 0. 0. 0. 0.],0.015625,0.005859375,0.013671875,[0. 0. 0. 0. 0. 0. 0. 0. 0.],-1.80078125,-0.53515625,9.5,[0. 0. 0. 0. 0. 0. 0. 0. 0.]
1742664811135486334,1742664811,118085844,imu_link,-0.01702880859375,0.095947265625,0.00274658203125,0.9952392578125,[0. 0. 0. 0. 0. 0. 0. 0. 0.],0.015625,0.005859375,0.013671875,[0. 0. 0. 0. 0. 0. 0. 0. 0.],-1.80078125,-0.53515625,9.5,[0. 0. 0. 0. 0. 0. 0. 0. 0.]
1742664811141737516,1742664811,138074834,imu_link,-0.01702880859375,0.095947265625,0.00274658203125,0.9952392578125,[0. 0. 0. 0. 0. 0. 0. 0. 0.],0.015625,0.005859375,0.013671875,[0. 0. 0. 0. 0. 0. 0. 0. 0.],-1.72265625,-0.3046875,9.65234375,[0. 0. 0. 0. 0. 0. 0. 0. 0.]
1742664811178169668,1742664811,158178955,imu_link,-0.01708984375,0.0955810546875,0.00262451171875,0.99530029296875,[0. 0. 0. 0. 0. 0. 0. 0. 0.],0.01171875,-0.001953125,-0.0078125,[0. 0. 0. 0. 0. 0. 0. 0. 0.],-1.53125,-0.3046875,9.46484375,[0. 0. 0. 0. 0. 0. 0. 0. 0.]
1742664811184203088,1742664811,180848780,imu_link,-0.01708984375,0.0955810546875,0.00262451171875,0.99530029296875,[0. 0. 0. 0. 0. 0. 0. 0. 0.],0.01171875,-0.001953125,-0.0078125,[0. 0. 0. 0. 0. 0. 0. 0. 0.],-1.53125,-0.3046875,9.46484375,[0. 0. 0. 0. 0. 0. 0. 0. 0.]
1742664811210995509,1742664811,198125139,imu_link,-0.01708984375,0.0955810546875,0.00262451171875,0.99530029296875,[0. 0. 0. 0. 0. 0. 0. 0. 0.],-0.00390625,0.00390625,0.00390625,[0. 0. 0. 0. 0. 0. 0. 0. 0.],-1.41796875,-0.3046875,9.6875,[0. 0. 0. 0. 0. 0. 0. 0. 0.]
1742664811235378729,1742664811,218102111,imu_link,-0.01715087890625,0.09527587890625,0.00262451171875,0.99530029296875,[0. 0. 0. 0. 0. 0. 0. 0. 0.],-0.00390625,0.00390625,0.00390625,[0. 0. 0. 0. 0. 0. 0. 0. 0.],-1.5703125,-0.34375,9.609375,[0. 0. 0. 0. 0. 0. 0. 0. 0.]
1742664811241485150,1742664811,238058249,imu_link,-0.01715087890625,0.09527587890625,0.00262451171875,0.99530029296875,[0. 0. 0. 0. 0. 0. 0. 0. 0.],-0.00390625,0.00390625,0.00390625,[0. 0. 0. 0. 0. 0. 0. 0. 0.],-1.5703125,-0.34375,9.609375,[0. 0. 0. 0. 0. 0. 0. 0. 0.]
1742664811277307497,1742664811,258167556,imu_link,-0.01727294921875,0.09515380859375,0.0025634765625,0.99530029296875,[0. 0. 0. 0. 0. 0. 0. 0. 0.],-0.00390625,0.005859375,-0.005859375,[0. 0. 0. 0. 0. 0. 0. 0. 0.],-1.80078125,-0.34375,9.5,[0. 0. 0. 0. 0. 0. 0. 0. 0.]
1742664811283273675,1742664811,279622085,imu_link,-0.01727294921875,0.09515380859375,0.0025634765625,0.99530029296875,[0. 0. 0. 0. 0. 0. 0. 0. 0.],-0.00390625,0.005859375,-0.005859375,[0. 0. 0. 0. 0. 0. 0. 0. 0.],-1.80078125,-0.34375,9.5,[0. 0. 0. 0. 0. 0. 0. 0. 0.]
1742664811309416494,1742664811,298110980,imu_link,-0.01727294921875,0.09515380859375,0.0025634765625,0.99530029296875,[0. 0. 0. 0. 0. 0. 0. 0. 0.],-0.005859375,0.005859375,-0.0078125,[0. 0. 0. 0. 0. 0. 0. 0. 0.],-1.9140625,-0.26953125,9.65234375,[0. 0. 0. 0. 0. 0. 0. 0. 0.]
1742664811331799000,1742664811,318174860,imu_link,-0.0174560546875,0.09503173828125,0.0023193359375,0.99530029296875,[0. 0. 0. 0. 0. 0. 0. 0. 0.],-0.005859375,0.005859375,-0.0078125,[0. 0. 0. 0. 0. 0. 0. 0. 0.],-2.10546875,-0.19140625,9.5,[0. 0. 0. 0. 0. 0. 0. 0. 0.]
1742664811341585048,1742664811,338157684,imu_link,-0.0174560546875,0.09503173828125,0.0023193359375,0.99530029296875,[0. 0. 0. 0. 0. 0. 0. 0. 0.],-0.005859375,0.005859375,-0.0078125,[0. 0. 0. 0. 0. 0. 0. 0. 0.],-2.10546875,-0.19140625,9.5,[0. 0. 0. 0. 0. 0. 0. 0. 0.]
1742664811377270504,1742664811,358182212,imu_link,-0.01763916015625,0.09490966796875,0.0018310546875,0.99530029296875,[0. 0. 0. 0. 0. 0. 0. 0. 0.],-0.00390625,0.0078125,-0.01953125,[0. 0. 0. 0. 0. 0. 0. 0. 0.],-2.18359375,-0.26953125,9.578125,[0. 0. 0. 0. 0. 0. 0. 0. 0.]
1742664811385950888,1742664811,380250324,imu_link,-0.01763916015625,0.09490966796875,0.0018310546875,0.99530029296875,[0. 0. 0. 0. 0. 0. 0. 0. 0.],-0.00390625,0.0078125,-0.01953125,[0. 0. 0. 0. 0. 0. 0. 0. 0.],-2.18359375,-0.26953125,9.578125,[0. 0. 0. 0. 0. 0. 0. 0. 0.]
1742664811405442685,1742664811,398173859,imu_link,-0.01763916015625,0.09490966796875,0.0018310546875,0.99530029296875,[0. 0. 0. 0. 0. 0. 0. 0. 0.],-0.00390625,0.0078125,-0.015625,[0. 0. 0. 0. 0. 0. 0. 0. 0.],-2.18359375,-0.34375,9.5390625,[0. 0. 0. 0. 0. 0. 0. 0. 0.]
1742664811432471703,1742664811,418090922,imu_link,-0.017822265625,0.09466552734375,0.00140380859375,0.995361328125,[0. 0. 0. 0. 0. 0. 0. 0. 0.],-0.00390625,0.0078125,-0.015625,[0. 0. 0. 0. 0. 0. 0. 0. 0.],-2.14453125,-0.34375,9.61328125,[0. 0. 0. 0. 0. 0. 0. 0. 0.]
1742664811441991432,1742664811,438272397,imu_link,-0.017822265625,0.09466552734375,0.00140380859375,0.995361328125,[0. 0. 0. 0. 0. 0. 0. 0. 0.],-0.00390625,0.0078125,-0.015625,[0. 0. 0. 0. 0. 0. 0. 0. 0.],-2.14453125,-0.34375,9.61328125,[0. 0. 0. 0. 0. 0. 0. 0. 0.]
1742664811484395503,1742664811,458561688,imu_link,-0.01800537109375,0.094482421875,0.0010986328125,0.995361328125,[0. 0. 0. 0. 0. 0. 0. 0. 0.],0.001953125,0.005859375,-0.01171875,[0. 0. 0. 0. 0. 0. 0. 0. 0.],-2.0703125,-0.3828125,9.50390625,[0. 0. 0. 0. 0. 0. 0. 0. 0.]
1742664811488554710,1742664811,486143435,imu_link,-0.01800537109375,0.094482421875,0.0010986328125,0.995361328125,[0. 0. 0. 0. 0. 0. 0. 0. 0.],0.001953125,0.005859375,-0.01171875,[0. 0. 0. 0. 0. 0. 0. 0. 0.],-2.03125,-0.421875,9.609375,[0. 0. 0. 0. 0. 0. 0. 0. 0.]
1742664811505676141,1742664811,498330888,imu_link,-0.01800537109375,0.094482421875,0.0010986328125,0.995361328125,[0. 0. 0. 0. 0. 0. 0. 0. 0.],0.01171875,0.00390625,0.001953125,[0. 0. 0. 0. 0. 0. 0. 0. 0.],-2.03125,-0.421875,9.609375,[0. 0. 0. 0. 0. 0. 0. 0. 0.]
1742664811532449562,1742664811,518098764,imu_link,-0.01806640625,0.09423828125,0.00103759765625,0.995361328125,[0. 0. 0. 0. 0. 0. 0. 0. 0.],0.01171875,0.00390625,0.001953125,[0. 0. 0. 0. 0. 0. 0. 0. 0.],-1.9921875,-0.4609375,9.578125,[0. 0. 0. 0. 0. 0. 0. 0. 0.]
1742664811545495730,1742664811,538136958,imu_link,-0.01806640625,0.09423828125,0.00103759765625,0.995361328125,[0. 0. 0. 0. 0. 0. 0. 0. 0.],0.01171875,0.00390625,0.001953125,[0. 0. 0. 0. 0. 0. 0. 0. 0.],-1.9921875,-0.4609375,9.578125,[0. 0. 0. 0. 0. 0. 0. 0. 0.]
1742664811561536312,1742664811,558107485,imu_link,-0.01806640625,0.09423828125,0.00103759765625,0.995361328125,[0. 0. 0. 0. 0. 0. 0. 0. 0.],0.013671875,0.00390625,-0.00390625,[0. 0. 0. 0. 0. 0. 0. 0. 0.],-1.9140625,-0.3828125,9.5390625,[0. 0. 0. 0. 0. 0. 0. 0. 0.]
1742664811593285027,1742664811,578146958,imu_link,-0.01800537109375,0.0941162109375,0.00103759765625,0.99542236328125,[0. 0. 0. 0. 0. 0. 0. 0. 0.],0.013671875,0.00390625,-0.00390625,[0. 0. 0. 0. 0. 0. 0. 0. 0.],-1.83984375,-0.3046875,9.65234375,[0. 0. 0. 0. 0. 0. 0. 0. 0.]
1742664811610107842,1742664811,598156837,imu_link,-0.01800537109375,0.0941162109375,0.00103759765625,0.99542236328125,[0. 0. 0. 0. 0. 0. 0. 0. 0.],0.0078125,0.00390625,0.005859375,[0. 0. 0. 0. 0. 0. 0. 0. 0.],-1.68359375,-0.3828125,9.4609375,[0. 0. 0. 0. 0. 0. 0. 0. 0.]
1742664811630698989,1742664811,618076697,imu_link,-0.01800537109375,0.093994140625,0.0010986328125,0.99542236328125,[0. 0. 0. 0. 0. 0. 0. 0. 0.],0.0078125,0.00390625,0.005859375,[0. 0. 0. 0. 0. 0. 0. 0. 0.],-1.68359375,-0.3828125,9.4609375,[0. 0. 0. 0. 0. 0. 0. 0. 0.]
1742664811645581943,1742664811,638088484,imu_link,-0.01800537109375,0.093994140625,0.0010986328125,0.99542236328125,[0. 0. 0. 0. 0. 0. 0. 0. 0.],0.0078125,0.00390625,0.005859375,[0. 0. 0. 0. 0. 0. 0. 0. 0.],-1.72265625,-0.23046875,9.61328125,[0. 0. 0. 0. 0. 0. 0. 0. 0.]
1742664811661620210,1742664811,658100326,imu_link,-0.01800537109375,0.093994140625,0.0010986328125,0.99542236328125,[0. 0. 0. 0. 0. 0. 0. 0. 0.],0.0,0.005859375,0.001953125,[0. 0. 0. 0. 0. 0. 0. 0. 0.],-1.72265625,-0.23046875,9.61328125,[0. 0. 0. 0. 0. 0. 0. 0. 0.]
1742664811692522357,1742664811,678145206,imu_link,-0.01812744140625,0.0938720703125,0.00115966796875,0.99542236328125,[0. 0. 0. 0. 0. 0. 0. 0. 0.],0.0,0.005859375,0.001953125,[0. 0. 0. 0. 0. 0. 0. 0. 0.],-1.80078125,-0.3046875,9.58203125,[0. 0. 0. 0. 0. 0. 0. 0. 0.]
1742664811710853694,1742664811,698152437,imu_link,-0.01812744140625,0.0938720703125,0.00115966796875,0.99542236328125,[0. 0. 0. 0. 0. 0. 0. 0. 0.],-0.00390625,0.005859375,-0.0078125,[0. 0. 0. 0. 0. 0. 0. 0. 0.],-1.9921875,-0.3046875,9.609375,[0. 0. 0. 0. 0. 0. 0. 0. 0.]
1742664811735178542,1742664811,718155391,imu_link,-0.018310546875,0.09454345703125,0.0009765625,0.995361328125,[0. 0. 0. 0. 0. 0. 0. 0. 0.],-0.00390625,0.005859375,-0.0078125,[0. 0. 0. 0. 0. 0. 0. 0. 0.],-2.0703125,-0.3046875,9.5390625,[0. 0. 0. 0. 0. 0. 0. 0. 0.]
1742664811741451132,1742664811,738058417,imu_link,-0.018310546875,0.09454345703125,0.0009765625,0.995361328125,[0. 0. 0. 0. 0. 0. 0. 0. 0.],-0.00390625,0.005859375,-0.0078125,[0. 0. 0. 0. 0. 0. 0. 0. 0.],-2.0703125,-0.3046875,9.5390625,[0. 0. 0. 0. 0. 0. 0. 0. 0.]
1742664811778020212,1742664811,758183205,imu_link,-0.01837158203125,0.09515380859375,0.0008544921875,0.99530029296875,[0. 0. 0. 0. 0. 0. 0. 0. 0.],-0.00390625,0.00390625,-0.0078125,[0. 0. 0. 0. 0. 0. 0. 0. 0.],-2.0703125,-0.3046875,9.5390625,[0. 0. 0. 0. 0. 0. 0. 0. 0.]
1742664811784236116,1742664811,780780974,imu_link,-0.01837158203125,0.09515380859375,0.0008544921875,0.99530029296875,[0. 0. 0. 0. 0. 0. 0. 0. 0.],-0.00390625,0.00390625,-0.0078125,[0. 0. 0. 0. 0. 0. 0. 0. 0.],-2.0703125,-0.3046875,9.5390625,[0. 0. 0. 0. 0. 0. 0. 0. 0.]
