timestamp,header.stamp.sec,header.stamp.nanosec,header.frame_id,orientation.x,orientation.y,orientation.z,orientation.w,orientation_covariance,angular_velocity.x,angular_velocity.y,angular_velocity.z,angular_velocity_covariance,linear_acceleration.x,linear_acceleration.y,linear_acceleration.z,linear_acceleration_covariance
1742663453564223101,1742663453,545264177,imu_link,-0.01556396484375,0.09808349609375,-0.0009765625,0.99505615234375,[0. 0. 0. 0. 0. 0. 0. 0. 0.],0.0,0.0,0.0,[0. 0. 0. 0. 0. 0. 0. 0. 0.],-1.9140625,-0.3046875,9.58203125,[0. 0. 0. 0. 0. 0. 0. 0. 0.]
1742663453573167088,1742663453,570588793,imu_link,-0.01556396484375,0.09808349609375,-0.0009765625,0.99505615234375,[0. 0. 0. 0. 0. 0. 0. 0. 0.],0.0,0.0,0.0,[0. 0. 0. 0. 0. 0. 0. 0. 0.],-1.9140625,-0.3046875,9.58203125,[0. 0. 0. 0. 0. 0. 0. 0. 0.]
1742663453598874057,1742663453,584678517,imu_link,-0.01556396484375,0.09808349609375,-0.0009765625,0.99505615234375,[0. 0. 0. 0. 0. 0. 0. 0. 0.],0.0,0.0,0.0,[0. 0. 0. 0. 0. 0. 0. 0. 0.],-1.9140625,-0.3046875,9.58203125,[0. 0. 0. 0. 0. 0. 0. 0. 0.]
1742663453612077535,1742663453,604785690,imu_link,-0.01556396484375,0.09808349609375,-0.0009765625,0.99505615234375,[0. 0. 0. 0. 0. 0. 0. 0. 0.],0.0,0.0,0.0,[0. 0. 0. 0. 0. 0. 0. 0. 0.],-1.9140625,-0.3046875,9.58203125,[0. 0. 0. 0. 0. 0. 0. 0. 0.]
1742663453632610211,1742663453,624739584,imu_link,-0.01556396484375,0.09808349609375,-0.0009765625,0.99505615234375,[0. 0. 0. 0. 0. 0. 0. 0. 0.],0.0,0.0,0.0,[0. 0. 0. 0. 0. 0. 0. 0. 0.],-1.9140625,-0.3046875,9.58203125,[0. 0. 0. 0. 0. 0. 0. 0. 0.]
1742663453659336372,1742663453,644709848,imu_link,-0.01556396484375,0.09808349609375,-0.0009765625,0.99505615234375,[0. 0. 0. 0. 0. 0. 0. 0. 0.],0.0,0.0,0.0,[0. 0. 0. 0. 0. 0. 0. 0. 0.],-1.9140625,-0.3046875,9.58203125,[0. 0. 0. 0. 0. 0. 0. 0. 0.]
1742663453676550544,1742663453,664785872,imu_link,-0.01556396484375,0.09808349609375,-0.0009765625,0.99505615234375,[0. 0. 0. 0. 0. 0. 0. 0. 0.],0.0,0.0,0.0,[0. 0. 0. 0. 0. 0. 0. 0. 0.],-1.9140625,-0.3046875,9.58203125,[0. 0. 0. 0. 0. 0. 0. 0. 0.]
1742663453697337517,1742663453,684667469,imu_link,-0.01556396484375,0.09808349609375,-0.0009765625,0.99505615234375,[0. 0. 0. 0. 0. 0. 0. 0. 0.],0.0,0.0,0.0,[0. 0. 0. 0. 0. 0. 0. 0. 0.],-1.9140625,-0.3046875,9.58203125,[0. 0. 0. 0. 0. 0. 0. 0. 0.]
1742663453712667084,1742663453,704639770,imu_link,-0.01556396484375,0.09808349609375,-0.0009765625,0.99505615234375,[0. 0. 0. 0. 0. 0. 0. 0. 0.],0.0,0.0,0.0,[0. 0. 0. 0. 0. 0. 0. 0. 0.],-1.87890625,-0.3046875,9.578125,[0. 0. 0. 0. 0. 0. 0. 0. 0.]
1742663453732562014,1742663453,724729665,imu_link,-0.01556396484375,0.09808349609375,-0.0009765625,0.99505615234375,[0. 0. 0. 0. 0. 0. 0. 0. 0.],0.0,0.0,0.0,[0. 0. 0. 0. 0. 0. 0. 0. 0.],-1.87890625,-0.3046875,9.578125,[0. 0. 0. 0. 0. 0. 0. 0. 0.]
1742663453748284768,1742663453,746022401,imu_link,-0.01556396484375,0.09808349609375,-0.0009765625,0.99505615234375,[0. 0. 0. 0. 0. 0. 0. 0. 0.],0.0,0.0,0.0,[0. 0. 0. 0. 0. 0. 0. 0. 0.],-1.9140625,-0.3046875,9.58203125,[0. 0. 0. 0. 0. 0. 0. 0. 0.]
1742663453775991399,1742663453,764768324,imu_link,-0.01556396484375,0.09808349609375,-0.0009765625,0.99505615234375,[0. 0. 0. 0. 0. 0. 0. 0. 0.],0.0,0.0,0.0,[0. 0. 0. 0. 0. 0. 0. 0. 0.],-1.9140625,-0.3046875,9.58203125,[0. 0. 0. 0. 0. 0. 0. 0. 0.]
1742663453802148353,1742663453,784833663,imu_link,-0.01556396484375,0.09808349609375,-0.0009765625,0.99505615234375,[0. 0. 0. 0. 0. 0. 0. 0. 0.],0.0,0.0,0.0,[0. 0. 0. 0. 0. 0. 0. 0. 0.],-1.9140625,-0.3046875,9.58203125,[0. 0. 0. 0. 0. 0. 0. 0. 0.]
1742663453807928559,1742663453,804618018,imu_link,-0.01556396484375,0.09808349609375,-0.0009765625,0.99505615234375,[0. 0. 0. 0. 0. 0. 0. 0. 0.],0.0,0.0,0.0,[0. 0. 0. 0. 0. 0. 0. 0. 0.],-1.9140625,-0.3046875,9.58203125,[0. 0. 0. 0. 0. 0. 0. 0. 0.]
1742663453844657159,1742663453,824722672,imu_link,-0.01556396484375,0.09808349609375,-0.0009765625,0.99505615234375,[0. 0. 0. 0. 0. 0. 0. 0. 0.],0.0,0.0,0.0,[0. 0. 0. 0. 0. 0. 0. 0. 0.],-1.9140625,-0.3046875,9.58203125,[0. 0. 0. 0. 0. 0. 0. 0. 0.]
1742663453850531754,1742663453,847219305,imu_link,-0.01556396484375,0.09808349609375,-0.0009765625,0.99505615234375,[0. 0. 0. 0. 0. 0. 0. 0. 0.],0.0,0.0,0.0,[0. 0. 0. 0. 0. 0. 0. 0. 0.],-1.9140625,-0.3046875,9.58203125,[0. 0. 0. 0. 0. 0. 0. 0. 0.]
1742663453877113988,1742663453,865146982,imu_link,-0.01556396484375,0.09808349609375,-0.0009765625,0.99505615234375,[0. 0. 0. 0. 0. 0. 0. 0. 0.],0.0,0.0,0.0,[0. 0. 0. 0. 0. 0. 0. 0. 0.],-1.9140625,-0.3046875,9.58203125,[0. 0. 0. 0. 0. 0. 0. 0. 0.]
1742663453900281034,1742663453,884638891,imu_link,-0.01556396484375,0.09808349609375,-0.0009765625,0.99505615234375,[0. 0. 0. 0. 0. 0. 0. 0. 0.],0.0,0.0,0.0,[0. 0. 0. 0. 0. 0. 0. 0. 0.],-1.9140625,-0.3046875,9.58203125,[0. 0. 0. 0. 0. 0. 0. 0. 0.]
1742663453908005771,1742663453,904631896,imu_link,-0.01556396484375,0.09808349609375,-0.0009765625,0.99505615234375,[0. 0. 0. 0. 0. 0. 0. 0. 0.],0.0,0.0,0.0,[0. 0. 0. 0. 0. 0. 0. 0. 0.],-1.9140625,-0.3046875,9.58203125,[0. 0. 0. 0. 0. 0. 0. 0. 0.]
1742663453943800012,1742663453,924718606,imu_link,-0.01556396484375,0.09808349609375,-0.0009765625,0.99505615234375,[0. 0. 0. 0. 0. 0. 0. 0. 0.],0.0,0.0,0.0,[0. 0. 0. 0. 0. 0. 0. 0. 0.],-1.9140625,-0.3046875,9.58203125,[0. 0. 0. 0. 0. 0. 0. 0. 0.]
1742663453949890442,1742663453,946604383,imu_link,-0.01556396484375,0.09808349609375,-0.0009765625,0.99505615234375,[0. 0. 0. 0. 0. 0. 0. 0. 0.],0.0,0.0,0.0,[0. 0. 0. 0. 0. 0. 0. 0. 0.],-1.9140625,-0.3046875,9.58203125,[0. 0. 0. 0. 0. 0. 0. 0. 0.]
1742663453977887334,1742663453,965150175,imu_link,-0.01556396484375,0.09808349609375,-0.0009765625,0.99505615234375,[0. 0. 0. 0. 0. 0. 0. 0. 0.],0.0,0.0,0.0,[0. 0. 0. 0. 0. 0. 0. 0. 0.],-1.9140625,-0.3046875,9.58203125,[0. 0. 0. 0. 0. 0. 0. 0. 0.]
1742663453998287546,1742663453,984662732,imu_link,-0.01556396484375,0.09808349609375,-0.0009765625,0.99505615234375,[0. 0. 0. 0. 0. 0. 0. 0. 0.],0.0,0.0,0.0,[0. 0. 0. 0. 0. 0. 0. 0. 0.],-1.9140625,-0.3046875,9.58203125,[0. 0. 0. 0. 0. 0. 0. 0. 0.]
1742663454008044853,1742663454,4675330,imu_link,-0.01556396484375,0.09808349609375,-0.0009765625,0.99505615234375,[0. 0. 0. 0. 0. 0. 0. 0. 0.],0.0,0.0,0.0,[0. 0. 0. 0. 0. 0. 0. 0. 0.],-1.9140625,-0.3046875,9.58203125,[0. 0. 0. 0. 0. 0. 0. 0. 0.]
1742663454046278425,1742663454,24715465,imu_link,-0.01556396484375,0.09808349609375,-0.0009765625,0.99505615234375,[0. 0. 0. 0. 0. 0. 0. 0. 0.],0.0,0.0,0.0,[0. 0. 0. 0. 0. 0. 0. 0. 0.],-1.9140625,-0.3046875,9.58203125,[0. 0. 0. 0. 0. 0. 0. 0. 0.]
1742663454055147299,1742663454,48361235,imu_link,-0.01556396484375,0.09808349609375,-0.0009765625,0.99505615234375,[0. 0. 0. 0. 0. 0. 0. 0. 0.],0.0,0.0,0.0,[0. 0. 0. 0. 0. 0. 0. 0. 0.],-1.9140625,-0.3046875,9.58203125,[0. 0. 0. 0. 0. 0. 0. 0. 0.]
1742663454072403249,1742663454,64895624,imu_link,-0.01556396484375,0.09808349609375,-0.0009765625,0.99505615234375,[0. 0. 0. 0. 0. 0. 0. 0. 0.],0.0,0.0,0.0,[0. 0. 0. 0. 0. 0. 0. 0. 0.],-1.9140625,-0.3046875,9.58203125,[0. 0. 0. 0. 0. 0. 0. 0. 0.]
1742663454098857094,1742663454,84643683,imu_link,-0.01556396484375,0.09808349609375,-0.0009765625,0.99505615234375,[0. 0. 0. 0. 0. 0. 0. 0. 0.],0.0,0.0,0.0,[0. 0. 0. 0. 0. 0. 0. 0. 0.],-1.9140625,-0.3046875,9.58203125,[0. 0. 0. 0. 0. 0. 0. 0. 0.]
1742663454108241842,1742663454,104775041,imu_link,-0.01556396484375,0.09808349609375,-0.0009765625,0.99505615234375,[0. 0. 0. 0. 0. 0. 0. 0. 0.],0.0,0.0,0.0,[0. 0. 0. 0. 0. 0. 0. 0. 0.],-1.9140625,-0.3046875,9.58203125,[0. 0. 0. 0. 0. 0. 0. 0. 0.]
1742663454144318548,1742663454,124720379,imu_link,-0.01556396484375,0.09814453125,-0.0009765625,0.99505615234375,[0. 0. 0. 0. 0. 0. 0. 0. 0.],0.0,0.0,0.0,[0. 0. 0. 0. 0. 0. 0. 0. 0.],-1.9140625,-0.3046875,9.58203125,[0. 0. 0. 0. 0. 0. 0. 0. 0.]
1742663454153504795,1742663454,151541486,imu_link,-0.01556396484375,0.09814453125,-0.0009765625,0.99505615234375,[0. 0. 0. 0. 0. 0. 0. 0. 0.],0.0,0.0,0.0,[0. 0. 0. 0. 0. 0. 0. 0. 0.],-1.9140625,-0.3046875,9.58203125,[0. 0. 0. 0. 0. 0. 0. 0. 0.]
1742663454172023865,1742663454,164779168,imu_link,-0.01556396484375,0.09814453125,-0.0009765625,0.99505615234375,[0. 0. 0. 0. 0. 0. 0. 0. 0.],0.0,0.0,0.0,[0. 0. 0. 0. 0. 0. 0. 0. 0.],-1.9140625,-0.3046875,9.58203125,[0. 0. 0. 0. 0. 0. 0. 0. 0.]
1742663454199399271,1742663454,184712154,imu_link,-0.01556396484375,0.09814453125,-0.0009765625,0.99505615234375,[0. 0. 0. 0. 0. 0. 0. 0. 0.],0.0,0.0,0.0,[0. 0. 0. 0. 0. 0. 0. 0. 0.],-1.9140625,-0.3046875,9.58203125,[0. 0. 0. 0. 0. 0. 0. 0. 0.]
1742663454211988615,1742663454,204716511,imu_link,-0.01556396484375,0.09814453125,-0.0009765625,0.99505615234375,[0. 0. 0. 0. 0. 0. 0. 0. 0.],0.0,0.0,0.0,[0. 0. 0. 0. 0. 0. 0. 0. 0.],-1.9140625,-0.3046875,9.58203125,[0. 0. 0. 0. 0. 0. 0. 0. 0.]
1742663454228016890,1742663454,224632238,imu_link,-0.01556396484375,0.09814453125,-0.0009765625,0.99505615234375,[0. 0. 0. 0. 0. 0. 0. 0. 0.],0.0,0.0,0.0,[0. 0. 0. 0. 0. 0. 0. 0. 0.],-1.9140625,-0.3046875,9.58203125,[0. 0. 0. 0. 0. 0. 0. 0. 0.]
1742663454258872691,1742663454,244628150,imu_link,-0.01556396484375,0.09814453125,-0.0009765625,0.99505615234375,[0. 0. 0. 0. 0. 0. 0. 0. 0.],0.0,0.0,0.0,[0. 0. 0. 0. 0. 0. 0. 0. 0.],-1.9140625,-0.3046875,9.58203125,[0. 0. 0. 0. 0. 0. 0. 0. 0.]
1742663454273998533,1742663454,264656415,imu_link,-0.01556396484375,0.09814453125,-0.0009765625,0.99505615234375,[0. 0. 0. 0. 0. 0. 0. 0. 0.],0.0,0.0,0.0,[0. 0. 0. 0. 0. 0. 0. 0. 0.],-1.9140625,-0.3046875,9.58203125,[0. 0. 0. 0. 0. 0. 0. 0. 0.]
1742663454298428494,1742663454,284831328,imu_link,-0.01556396484375,0.09820556640625,-0.0009765625,0.99505615234375,[0. 0. 0. 0. 0. 0. 0. 0. 0.],0.0,0.0,0.0,[0. 0. 0. 0. 0. 0. 0. 0. 0.],-1.9140625,-0.3046875,9.58203125,[0. 0. 0. 0. 0. 0. 0. 0. 0.]
1742663454311922807,1742663454,304715777,imu_link,-0.01556396484375,0.09820556640625,-0.0009765625,0.99505615234375,[0. 0. 0. 0. 0. 0. 0. 0. 0.],0.0,0.0,0.0,[0. 0. 0. 0. 0. 0. 0. 0. 0.],-1.9140625,-0.3046875,9.58203125,[0. 0. 0. 0. 0. 0. 0. 0. 0.]
1742663454328065546,1742663454,324696541,imu_link,-0.01556396484375,0.09820556640625,-0.0009765625,0.99505615234375,[0. 0. 0. 0. 0. 0. 0. 0. 0.],0.0,0.0,0.0,[0. 0. 0. 0. 0. 0. 0. 0. 0.],-1.9140625,-0.3046875,9.58203125,[0. 0. 0. 0. 0. 0. 0. 0. 0.]
1742663454358938013,1742663454,344674435,imu_link,-0.01556396484375,0.09820556640625,-0.0009765625,0.99505615234375,[0. 0. 0. 0. 0. 0. 0. 0. 0.],0.0,0.0,0.0,[0. 0. 0. 0. 0. 0. 0. 0. 0.],-1.9140625,-0.3046875,9.58203125,[0. 0. 0. 0. 0. 0. 0. 0. 0.]
1742663454376606113,1742663454,364662940,imu_link,-0.01556396484375,0.09820556640625,-0.0009765625,0.99505615234375,[0. 0. 0. 0. 0. 0. 0. 0. 0.],0.0,0.0,0.0,[0. 0. 0. 0. 0. 0. 0. 0. 0.],-1.9140625,-0.3046875,9.58203125,[0. 0. 0. 0. 0. 0. 0. 0. 0.]
1742663454401335243,1742663454,384657834,imu_link,-0.01556396484375,0.09820556640625,-0.0009765625,0.99505615234375,[0. 0. 0. 0. 0. 0. 0. 0. 0.],0.0,0.0,0.0,[0. 0. 0. 0. 0. 0. 0. 0. 0.],-1.9140625,-0.3046875,9.58203125,[0. 0. 0. 0. 0. 0. 0. 0. 0.]
1742663454408135492,1742663454,404730414,imu_link,-0.01556396484375,0.09820556640625,-0.0009765625,0.99505615234375,[0. 0. 0. 0. 0. 0. 0. 0. 0.],0.0,0.0,0.0,[0. 0. 0. 0. 0. 0. 0. 0. 0.],-1.9140625,-0.3046875,9.58203125,[0. 0. 0. 0. 0. 0. 0. 0. 0.]
1742663454444382922,1742663454,424717530,imu_link,-0.01556396484375,0.09820556640625,-0.0009765625,0.99505615234375,[0. 0. 0. 0. 0. 0. 0. 0. 0.],0.0,0.0,0.0,[0. 0. 0. 0. 0. 0. 0. 0. 0.],-1.87890625,-0.3046875,9.578125,[0. 0. 0. 0. 0. 0. 0. 0. 0.]
1742663454450281795,1742663454,446957106,imu_link,-0.01556396484375,0.09820556640625,-0.0009765625,0.99505615234375,[0. 0. 0. 0. 0. 0. 0. 0. 0.],0.0,0.0,0.0,[0. 0. 0. 0. 0. 0. 0. 0. 0.],-1.87890625,-0.3046875,9.578125,[0. 0. 0. 0. 0. 0. 0. 0. 0.]
1742663454476850567,1742663454,464957560,imu_link,-0.01556396484375,0.09820556640625,-0.0009765625,0.99505615234375,[0. 0. 0. 0. 0. 0. 0. 0. 0.],0.0,0.0,0.0,[0. 0. 0. 0. 0. 0. 0. 0. 0.],-1.9140625,-0.3046875,9.58203125,[0. 0. 0. 0. 0. 0. 0. 0. 0.]
1742663454501246509,1742663454,484666675,imu_link,-0.01556396484375,0.0982666015625,-0.0009765625,0.99505615234375,[0. 0. 0. 0. 0. 0. 0. 0. 0.],0.0,0.0,0.0,[0. 0. 0. 0. 0. 0. 0. 0. 0.],-1.9140625,-0.3046875,9.58203125,[0. 0. 0. 0. 0. 0. 0. 0. 0.]
1742663454508505576,1742663454,505082812,imu_link,-0.01556396484375,0.0982666015625,-0.0009765625,0.99505615234375,[0. 0. 0. 0. 0. 0. 0. 0. 0.],0.0,0.0,0.0,[0. 0. 0. 0. 0. 0. 0. 0. 0.],-1.9140625,-0.3046875,9.58203125,[0. 0. 0. 0. 0. 0. 0. 0. 0.]
1742663454545761216,1742663454,524667315,imu_link,-0.01556396484375,0.0982666015625,-0.0009765625,0.99505615234375,[0. 0. 0. 0. 0. 0. 0. 0. 0.],0.0,0.0,0.0,[0. 0. 0. 0. 0. 0. 0. 0. 0.],-1.9140625,-0.3046875,9.58203125,[0. 0. 0. 0. 0. 0. 0. 0. 0.]
1742663454550426247,1742663454,548327918,imu_link,-0.01556396484375,0.0982666015625,-0.0009765625,0.99505615234375,[0. 0. 0. 0. 0. 0. 0. 0. 0.],0.0,0.0,0.0,[0. 0. 0. 0. 0. 0. 0. 0. 0.],-1.9140625,-0.3046875,9.58203125,[0. 0. 0. 0. 0. 0. 0. 0. 0.]
1742663454576702443,1742663454,564757029,imu_link,-0.01556396484375,0.0982666015625,-0.0009765625,0.99505615234375,[0. 0. 0. 0. 0. 0. 0. 0. 0.],0.0,0.0,0.0,[0. 0. 0. 0. 0. 0. 0. 0. 0.],-1.9140625,-0.3046875,9.58203125,[0. 0. 0. 0. 0. 0. 0. 0. 0.]
1742663454598734128,1742663454,584664571,imu_link,-0.01556396484375,0.0982666015625,-0.0009765625,0.99505615234375,[0. 0. 0. 0. 0. 0. 0. 0. 0.],0.0,0.0,0.0,[0. 0. 0. 0. 0. 0. 0. 0. 0.],-1.9140625,-0.3046875,9.58203125,[0. 0. 0. 0. 0. 0. 0. 0. 0.]
1742663454608235378,1742663454,604764910,imu_link,-0.01556396484375,0.0982666015625,-0.0009765625,0.99505615234375,[0. 0. 0. 0. 0. 0. 0. 0. 0.],0.0,0.0,0.0,[0. 0. 0. 0. 0. 0. 0. 0. 0.],-1.9140625,-0.3046875,9.58203125,[0. 0. 0. 0. 0. 0. 0. 0. 0.]
1742663454644861421,1742663454,624699563,imu_link,-0.01556396484375,0.0982666015625,-0.0009765625,0.99505615234375,[0. 0. 0. 0. 0. 0. 0. 0. 0.],0.0,0.0,0.0,[0. 0. 0. 0. 0. 0. 0. 0. 0.],-1.9140625,-0.3046875,9.58203125,[0. 0. 0. 0. 0. 0. 0. 0. 0.]
1742663454652697307,1742663454,647372938,imu_link,-0.01556396484375,0.0982666015625,-0.0009765625,0.99505615234375,[0. 0. 0. 0. 0. 0. 0. 0. 0.],0.0,0.0,0.0,[0. 0. 0. 0. 0. 0. 0. 0. 0.],-1.9140625,-0.3046875,9.58203125,[0. 0. 0. 0. 0. 0. 0. 0. 0.]
1742663454671176394,1742663454,664675517,imu_link,-0.01556396484375,0.0982666015625,-0.0009765625,0.99505615234375,[0. 0. 0. 0. 0. 0. 0. 0. 0.],0.0,0.0,0.0,[0. 0. 0. 0. 0. 0. 0. 0. 0.],-1.9140625,-0.3046875,9.58203125,[0. 0. 0. 0. 0. 0. 0. 0. 0.]
1742663454698843081,1742663454,684704597,imu_link,-0.01556396484375,0.0982666015625,-0.0009765625,0.99505615234375,[0. 0. 0. 0. 0. 0. 0. 0. 0.],0.0,0.0,0.0,[0. 0. 0. 0. 0. 0. 0. 0. 0.],-1.9140625,-0.3046875,9.58203125,[0. 0. 0. 0. 0. 0. 0. 0. 0.]
1742663454708291107,1742663454,704905214,imu_link,-0.01556396484375,0.0982666015625,-0.0009765625,0.99505615234375,[0. 0. 0. 0. 0. 0. 0. 0. 0.],0.0,0.0,0.0,[0. 0. 0. 0. 0. 0. 0. 0. 0.],-1.9140625,-0.3046875,9.58203125,[0. 0. 0. 0. 0. 0. 0. 0. 0.]
1742663454749543904,1742663454,724714922,imu_link,-0.01556396484375,0.0982666015625,-0.0009765625,0.99505615234375,[0. 0. 0. 0. 0. 0. 0. 0. 0.],0.0,0.0,0.0,[0. 0. 0. 0. 0. 0. 0. 0. 0.],-1.9140625,-0.3046875,9.58203125,[0. 0. 0. 0. 0. 0. 0. 0. 0.]
1742663454753888266,1742663454,751229748,imu_link,-0.01556396484375,0.0982666015625,-0.0009765625,0.99505615234375,[0. 0. 0. 0. 0. 0. 0. 0. 0.],0.0,0.0,0.0,[0. 0. 0. 0. 0. 0. 0. 0. 0.],-1.9140625,-0.3046875,9.58203125,[0. 0. 0. 0. 0. 0. 0. 0. 0.]
1742663454771182716,1742663454,764680913,imu_link,-0.01556396484375,0.0982666015625,-0.0009765625,0.99505615234375,[0. 0. 0. 0. 0. 0. 0. 0. 0.],0.0,0.0,0.0,[0. 0. 0. 0. 0. 0. 0. 0. 0.],-1.9140625,-0.3046875,9.58203125,[0. 0. 0. 0. 0. 0. 0. 0. 0.]
1742663454799174979,1742663454,784860327,imu_link,-0.01556396484375,0.09832763671875,-0.0009765625,0.99505615234375,[0. 0. 0. 0. 0. 0. 0. 0. 0.],0.0,0.0,0.0,[0. 0. 0. 0. 0. 0. 0. 0. 0.],-1.9140625,-0.3046875,9.58203125,[0. 0. 0. 0. 0. 0. 0. 0. 0.]
1742663454811909231,1742663454,804739035,imu_link,-0.01556396484375,0.09832763671875,-0.0009765625,0.99505615234375,[0. 0. 0. 0. 0. 0. 0. 0. 0.],0.0,0.0,0.0,[0. 0. 0. 0. 0. 0. 0. 0. 0.],-1.9140625,-0.3046875,9.58203125,[0. 0. 0. 0. 0. 0. 0. 0. 0.]
1742663454828046488,1742663454,824653188,imu_link,-0.01556396484375,0.09832763671875,-0.0009765625,0.99505615234375,[0. 0. 0. 0. 0. 0. 0. 0. 0.],0.0,0.0,0.0,[0. 0. 0. 0. 0. 0. 0. 0. 0.],-1.87890625,-0.3046875,9.578125,[0. 0. 0. 0. 0. 0. 0. 0. 0.]
1742663454858688380,1742663454,844641026,imu_link,-0.01556396484375,0.09832763671875,-0.0009765625,0.99505615234375,[0. 0. 0. 0. 0. 0. 0. 0. 0.],0.0,0.0,0.0,[0. 0. 0. 0. 0. 0. 0. 0. 0.],-1.9140625,-0.3046875,9.58203125,[0. 0. 0. 0. 0. 0. 0. 0. 0.]
1742663454876504037,1742663454,864636957,imu_link,-0.01556396484375,0.09832763671875,-0.0009765625,0.99505615234375,[0. 0. 0. 0. 0. 0. 0. 0. 0.],0.0,0.0,0.0,[0. 0. 0. 0. 0. 0. 0. 0. 0.],-1.9140625,-0.3046875,9.58203125,[0. 0. 0. 0. 0. 0. 0. 0. 0.]
1742663454898093219,1742663454,884644703,imu_link,-0.01556396484375,0.09832763671875,-0.0009765625,0.99505615234375,[0. 0. 0. 0. 0. 0. 0. 0. 0.],0.0,0.0,0.0,[0. 0. 0. 0. 0. 0. 0. 0. 0.],-1.9140625,-0.3046875,9.58203125,[0. 0. 0. 0. 0. 0. 0. 0. 0.]
1742663454915127297,1742663454,904821691,imu_link,-0.01556396484375,0.09832763671875,-0.0009765625,0.99505615234375,[0. 0. 0. 0. 0. 0. 0. 0. 0.],0.0,0.0,0.0,[0. 0. 0. 0. 0. 0. 0. 0. 0.],-1.9140625,-0.3046875,9.58203125,[0. 0. 0. 0. 0. 0. 0. 0. 0.]
1742663454928145348,1742663454,924701676,imu_link,-0.01556396484375,0.09832763671875,-0.0009765625,0.99505615234375,[0. 0. 0. 0. 0. 0. 0. 0. 0.],0.0,0.0,0.0,[0. 0. 0. 0. 0. 0. 0. 0. 0.],-1.9140625,-0.3046875,9.58203125,[0. 0. 0. 0. 0. 0. 0. 0. 0.]
1742663454958494848,1742663454,944642422,imu_link,-0.01556396484375,0.09832763671875,-0.0009765625,0.99505615234375,[0. 0. 0. 0. 0. 0. 0. 0. 0.],0.0,0.0,0.0,[0. 0. 0. 0. 0. 0. 0. 0. 0.],-1.9140625,-0.3046875,9.58203125,[0. 0. 0. 0. 0. 0. 0. 0. 0.]
1742663454976316617,1742663454,964677446,imu_link,-0.01556396484375,0.09832763671875,-0.0009765625,0.99505615234375,[0. 0. 0. 0. 0. 0. 0. 0. 0.],0.0,0.0,0.0,[0. 0. 0. 0. 0. 0. 0. 0. 0.],-1.87890625,-0.3046875,9.578125,[0. 0. 0. 0. 0. 0. 0. 0. 0.]
1742663455000807578,1742663454,984671080,imu_link,-0.01556396484375,0.0982666015625,-0.0009765625,0.99505615234375,[0. 0. 0. 0. 0. 0. 0. 0. 0.],0.0,0.0,0.0,[0. 0. 0. 0. 0. 0. 0. 0. 0.],-1.87890625,-0.3046875,9.578125,[0. 0. 0. 0. 0. 0. 0. 0. 0.]
1742663455008511963,1742663455,5140348,imu_link,-0.01556396484375,0.0982666015625,-0.0009765625,0.99505615234375,[0. 0. 0. 0. 0. 0. 0. 0. 0.],0.0,0.0,0.0,[0. 0. 0. 0. 0. 0. 0. 0. 0.],-1.9140625,-0.3046875,9.58203125,[0. 0. 0. 0. 0. 0. 0. 0. 0.]
1742663455043095196,1742663455,24701924,imu_link,-0.01556396484375,0.0982666015625,-0.0009765625,0.99505615234375,[0. 0. 0. 0. 0. 0. 0. 0. 0.],0.0,0.0,0.0,[0. 0. 0. 0. 0. 0. 0. 0. 0.],-1.9140625,-0.3046875,9.58203125,[0. 0. 0. 0. 0. 0. 0. 0. 0.]
1742663455049023532,1742663455,45670343,imu_link,-0.01556396484375,0.0982666015625,-0.0009765625,0.99505615234375,[0. 0. 0. 0. 0. 0. 0. 0. 0.],0.0,0.0,0.0,[0. 0. 0. 0. 0. 0. 0. 0. 0.],-1.9140625,-0.3046875,9.58203125,[0. 0. 0. 0. 0. 0. 0. 0. 0.]
1742663455076136270,1742663455,64722286,imu_link,-0.01556396484375,0.0982666015625,-0.0009765625,0.99505615234375,[0. 0. 0. 0. 0. 0. 0. 0. 0.],0.0,0.0,0.0,[0. 0. 0. 0. 0. 0. 0. 0. 0.],-1.9140625,-0.3046875,9.58203125,[0. 0. 0. 0. 0. 0. 0. 0. 0.]
1742663455101096198,1742663455,84633217,imu_link,-0.01556396484375,0.0982666015625,-0.0009765625,0.99505615234375,[0. 0. 0. 0. 0. 0. 0. 0. 0.],0.0,0.0,0.0,[0. 0. 0. 0. 0. 0. 0. 0. 0.],-1.9140625,-0.3046875,9.58203125,[0. 0. 0. 0. 0. 0. 0. 0. 0.]
1742663455108348247,1742663455,104872427,imu_link,-0.01556396484375,0.0982666015625,-0.0009765625,0.99505615234375,[0. 0. 0. 0. 0. 0. 0. 0. 0.],0.0,0.0,0.0,[0. 0. 0. 0. 0. 0. 0. 0. 0.],-1.9140625,-0.3046875,9.58203125,[0. 0. 0. 0. 0. 0. 0. 0. 0.]
1742663455145082438,1742663455,124681301,imu_link,-0.01556396484375,0.0982666015625,-0.0009765625,0.99505615234375,[0. 0. 0. 0. 0. 0. 0. 0. 0.],0.0,0.0,0.0,[0. 0. 0. 0. 0. 0. 0. 0. 0.],-1.9140625,-0.3046875,9.58203125,[0. 0. 0. 0. 0. 0. 0. 0. 0.]
1742663455149601728,1742663455,146876339,imu_link,-0.01556396484375,0.0982666015625,-0.0009765625,0.99505615234375,[0. 0. 0. 0. 0. 0. 0. 0. 0.],0.0,0.0,0.0,[0. 0. 0. 0. 0. 0. 0. 0. 0.],-1.9140625,-0.3046875,9.58203125,[0. 0. 0. 0. 0. 0. 0. 0. 0.]
1742663455176876023,1742663455,164819571,imu_link,-0.01556396484375,0.0982666015625,-0.0009765625,0.99505615234375,[0. 0. 0. 0. 0. 0. 0. 0. 0.],0.0,0.0,0.0,[0. 0. 0. 0. 0. 0. 0. 0. 0.],-1.9140625,-0.3046875,9.58203125,[0. 0. 0. 0. 0. 0. 0. 0. 0.]
1742663455198782578,1742663455,184670798,imu_link,-0.01556396484375,0.0982666015625,-0.0009765625,0.99505615234375,[0. 0. 0. 0. 0. 0. 0. 0. 0.],0.0,0.0,0.0,[0. 0. 0. 0. 0. 0. 0. 0. 0.],-1.9140625,-0.3046875,9.58203125,[0. 0. 0. 0. 0. 0. 0. 0. 0.]
1742663455207982251,1742663455,204641451,imu_link,-0.01556396484375,0.0982666015625,-0.0009765625,0.99505615234375,[0. 0. 0. 0. 0. 0. 0. 0. 0.],0.0,0.0,0.0,[0. 0. 0. 0. 0. 0. 0. 0. 0.],-1.9140625,-0.3046875,9.58203125,[0. 0. 0. 0. 0. 0. 0. 0. 0.]
1742663455245690375,1742663455,224712808,imu_link,-0.01556396484375,0.09820556640625,-0.0009765625,0.99505615234375,[0. 0. 0. 0. 0. 0. 0. 0. 0.],0.0,0.0,0.0,[0. 0. 0. 0. 0. 0. 0. 0. 0.],-1.9140625,-0.3046875,9.58203125,[0. 0. 0. 0. 0. 0. 0. 0. 0.]
1742663455255290032,1742663455,248648525,imu_link,-0.01556396484375,0.09820556640625,-0.0009765625,0.99505615234375,[0. 0. 0. 0. 0. 0. 0. 0. 0.],0.0,0.0,0.0,[0. 0. 0. 0. 0. 0. 0. 0. 0.],-1.9140625,-0.3046875,9.58203125,[0. 0. 0. 0. 0. 0. 0. 0. 0.]
1742663455271111435,1742663455,264681373,imu_link,-0.01556396484375,0.09820556640625,-0.0009765625,0.99505615234375,[0. 0. 0. 0. 0. 0. 0. 0. 0.],0.0,0.0,0.0,[0. 0. 0. 0. 0. 0. 0. 0. 0.],-1.9140625,-0.3046875,9.58203125,[0. 0. 0. 0. 0. 0. 0. 0. 0.]
1742663455298756918,1742663455,284812805,imu_link,-0.01556396484375,0.0982666015625,-0.0009765625,0.99505615234375,[0. 0. 0. 0. 0. 0. 0. 0. 0.],0.0,0.0,0.0,[0. 0. 0. 0. 0. 0. 0. 0. 0.],-1.9140625,-0.3046875,9.58203125,[0. 0. 0. 0. 0. 0. 0. 0. 0.]
1742663455307997646,1742663455,304641402,imu_link,-0.01556396484375,0.0982666015625,-0.0009765625,0.99505615234375,[0. 0. 0. 0. 0. 0. 0. 0. 0.],0.0,0.0,0.0,[0. 0. 0. 0. 0. 0. 0. 0. 0.],-1.9140625,-0.3046875,9.58203125,[0. 0. 0. 0. 0. 0. 0. 0. 0.]
1742663455348849273,1742663455,324707277,imu_link,-0.01556396484375,0.0982666015625,-0.0009765625,0.99505615234375,[0. 0. 0. 0. 0. 0. 0. 0. 0.],0.0,0.0,0.0,[0. 0. 0. 0. 0. 0. 0. 0. 0.],-1.9140625,-0.3046875,9.58203125,[0. 0. 0. 0. 0. 0. 0. 0. 0.]
1742663455354404311,1742663455,350736249,imu_link,-0.01556396484375,0.0982666015625,-0.0009765625,0.99505615234375,[0. 0. 0. 0. 0. 0. 0. 0. 0.],0.0,0.0,0.0,[0. 0. 0. 0. 0. 0. 0. 0. 0.],-1.9140625,-0.3046875,9.58203125,[0. 0. 0. 0. 0. 0. 0. 0. 0.]
1742663455371171183,1742663455,364693991,imu_link,-0.01556396484375,0.0982666015625,-0.0009765625,0.99505615234375,[0. 0. 0. 0. 0. 0. 0. 0. 0.],0.0,0.0,0.0,[0. 0. 0. 0. 0. 0. 0. 0. 0.],-1.9140625,-0.3046875,9.58203125,[0. 0. 0. 0. 0. 0. 0. 0. 0.]
1742663455398191457,1742663455,384650477,imu_link,-0.01556396484375,0.0982666015625,-0.0009765625,0.99505615234375,[0. 0. 0. 0. 0. 0. 0. 0. 0.],0.0,0.0,0.0,[0. 0. 0. 0. 0. 0. 0. 0. 0.],-1.9140625,-0.3046875,9.58203125,[0. 0. 0. 0. 0. 0. 0. 0. 0.]
1742663455414531493,1742663455,404673816,imu_link,-0.01556396484375,0.0982666015625,-0.0009765625,0.99505615234375,[0. 0. 0. 0. 0. 0. 0. 0. 0.],0.0,0.0,0.0,[0. 0. 0. 0. 0. 0. 0. 0. 0.],-1.9140625,-0.3046875,9.58203125,[0. 0. 0. 0. 0. 0. 0. 0. 0.]
1742663455428074011,1742663455,424682228,imu_link,-0.01556396484375,0.0982666015625,-0.0009765625,0.99505615234375,[0. 0. 0. 0. 0. 0. 0. 0. 0.],0.0,0.0,0.0,[0. 0. 0. 0. 0. 0. 0. 0. 0.],-1.9140625,-0.3046875,9.54296875,[0. 0. 0. 0. 0. 0. 0. 0. 0.]
1742663455458002860,1742663455,444726382,imu_link,-0.01556396484375,0.0982666015625,-0.0009765625,0.99505615234375,[0. 0. 0. 0. 0. 0. 0. 0. 0.],0.0,0.0,0.0,[0. 0. 0. 0. 0. 0. 0. 0. 0.],-1.9140625,-0.3046875,9.58203125,[0. 0. 0. 0. 0. 0. 0. 0. 0.]
1742663455476200909,1742663455,464750628,imu_link,-0.01556396484375,0.0982666015625,-0.0009765625,0.99505615234375,[0. 0. 0. 0. 0. 0. 0. 0. 0.],0.0,0.0,0.0,[0. 0. 0. 0. 0. 0. 0. 0. 0.],-1.9140625,-0.3046875,9.58203125,[0. 0. 0. 0. 0. 0. 0. 0. 0.]
1742663455497745720,1742663455,484643891,imu_link,-0.01556396484375,0.0982666015625,-0.0009765625,0.99505615234375,[0. 0. 0. 0. 0. 0. 0. 0. 0.],0.0,0.0,0.0,[0. 0. 0. 0. 0. 0. 0. 0. 0.],-1.9140625,-0.3046875,9.58203125,[0. 0. 0. 0. 0. 0. 0. 0. 0.]
1742663455515443080,1742663455,504689138,imu_link,-0.01556396484375,0.0982666015625,-0.0009765625,0.99505615234375,[0. 0. 0. 0. 0. 0. 0. 0. 0.],0.0,0.0,0.0,[0. 0. 0. 0. 0. 0. 0. 0. 0.],-1.9140625,-0.3046875,9.58203125,[0. 0. 0. 0. 0. 0. 0. 0. 0.]
1742663455527998869,1742663455,524657846,imu_link,-0.01556396484375,0.0982666015625,-0.0009765625,0.99505615234375,[0. 0. 0. 0. 0. 0. 0. 0. 0.],0.0,0.0,0.0,[0. 0. 0. 0. 0. 0. 0. 0. 0.],-1.9140625,-0.3046875,9.58203125,[0. 0. 0. 0. 0. 0. 0. 0. 0.]
1742663455558064349,1742663455,544727907,imu_link,-0.01556396484375,0.0982666015625,-0.0009765625,0.99505615234375,[0. 0. 0. 0. 0. 0. 0. 0. 0.],0.0,0.0,0.0,[0. 0. 0. 0. 0. 0. 0. 0. 0.],-1.87890625,-0.3046875,9.578125,[0. 0. 0. 0. 0. 0. 0. 0. 0.]
1742663455576153748,1742663455,564676208,imu_link,-0.01556396484375,0.0982666015625,-0.0009765625,0.99505615234375,[0. 0. 0. 0. 0. 0. 0. 0. 0.],0.0,0.0,0.0,[0. 0. 0. 0. 0. 0. 0. 0. 0.],-1.9140625,-0.3046875,9.58203125,[0. 0. 0. 0. 0. 0. 0. 0. 0.]
1742663455600341041,1742663455,584669787,imu_link,-0.01556396484375,0.09832763671875,-0.0009765625,0.99505615234375,[0. 0. 0. 0. 0. 0. 0. 0. 0.],0.0,0.0,0.0,[0. 0. 0. 0. 0. 0. 0. 0. 0.],-1.9140625,-0.3046875,9.58203125,[0. 0. 0. 0. 0. 0. 0. 0. 0.]
1742663455608314465,1742663455,604845645,imu_link,-0.01556396484375,0.09832763671875,-0.0009765625,0.99505615234375,[0. 0. 0. 0. 0. 0. 0. 0. 0.],0.0,0.0,0.0,[0. 0. 0. 0. 0. 0. 0. 0. 0.],-1.9140625,-0.3046875,9.58203125,[0. 0. 0. 0. 0. 0. 0. 0. 0.]
1742663455644039168,1742663455,624737816,imu_link,-0.01556396484375,0.09832763671875,-0.0009765625,0.99505615234375,[0. 0. 0. 0. 0. 0. 0. 0. 0.],0.0,0.0,0.0,[0. 0. 0. 0. 0. 0. 0. 0. 0.],-1.9140625,-0.3046875,9.58203125,[0. 0. 0. 0. 0. 0. 0. 0. 0.]
1742663455648974535,1742663455,646775372,imu_link,-0.01556396484375,0.09832763671875,-0.0009765625,0.99505615234375,[0. 0. 0. 0. 0. 0. 0. 0. 0.],0.0,0.0,0.0,[0. 0. 0. 0. 0. 0. 0. 0. 0.],-1.9140625,-0.3046875,9.58203125,[0. 0. 0. 0. 0. 0. 0. 0. 0.]
1742663455675624066,1742663455,664692974,imu_link,-0.01556396484375,0.09832763671875,-0.0009765625,0.99505615234375,[0. 0. 0. 0. 0. 0. 0. 0. 0.],0.0,0.0,0.0,[0. 0. 0. 0. 0. 0. 0. 0. 0.],-1.9140625,-0.3046875,9.58203125,[0. 0. 0. 0. 0. 0. 0. 0. 0.]
1742663455700099176,1742663455,684678535,imu_link,-0.01556396484375,0.09832763671875,-0.0009765625,0.99505615234375,[0. 0. 0. 0. 0. 0. 0. 0. 0.],0.0,0.0,0.0,[0. 0. 0. 0. 0. 0. 0. 0. 0.],-1.9140625,-0.3046875,9.58203125,[0. 0. 0. 0. 0. 0. 0. 0. 0.]
1742663455708074340,1742663455,704675706,imu_link,-0.01556396484375,0.09832763671875,-0.0009765625,0.99505615234375,[0. 0. 0. 0. 0. 0. 0. 0. 0.],0.0,0.0,0.0,[0. 0. 0. 0. 0. 0. 0. 0. 0.],-1.9140625,-0.3046875,9.58203125,[0. 0. 0. 0. 0. 0. 0. 0. 0.]
1742663455744809273,1742663455,724718619,imu_link,-0.01556396484375,0.09832763671875,-0.0009765625,0.99505615234375,[0. 0. 0. 0. 0. 0. 0. 0. 0.],0.0,0.0,0.0,[0. 0. 0. 0. 0. 0. 0. 0. 0.],-1.9140625,-0.3046875,9.58203125,[0. 0. 0. 0. 0. 0. 0. 0. 0.]
1742663455749760603,1742663455,747951738,imu_link,-0.01556396484375,0.09832763671875,-0.0009765625,0.99505615234375,[0. 0. 0. 0. 0. 0. 0. 0. 0.],0.0,0.0,0.0,[0. 0. 0. 0. 0. 0. 0. 0. 0.],-1.9140625,-0.3046875,9.58203125,[0. 0. 0. 0. 0. 0. 0. 0. 0.]
1742663455775462720,1742663455,764681351,imu_link,-0.01556396484375,0.09832763671875,-0.0009765625,0.99505615234375,[0. 0. 0. 0. 0. 0. 0. 0. 0.],0.0,0.0,0.0,[0. 0. 0. 0. 0. 0. 0. 0. 0.],-1.9140625,-0.3046875,9.58203125,[0. 0. 0. 0. 0. 0. 0. 0. 0.]
1742663455798112354,1742663455,784830635,imu_link,-0.01556396484375,0.09832763671875,-0.0009765625,0.99505615234375,[0. 0. 0. 0. 0. 0. 0. 0. 0.],0.0,0.0,0.0,[0. 0. 0. 0. 0. 0. 0. 0. 0.],-1.9140625,-0.3046875,9.58203125,[0. 0. 0. 0. 0. 0. 0. 0. 0.]
1742663455807341027,1742663455,804635676,imu_link,-0.01556396484375,0.09832763671875,-0.0009765625,0.99505615234375,[0. 0. 0. 0. 0. 0. 0. 0. 0.],0.0,0.0,0.0,[0. 0. 0. 0. 0. 0. 0. 0. 0.],-1.9140625,-0.3046875,9.58203125,[0. 0. 0. 0. 0. 0. 0. 0. 0.]
1742663455844446907,1742663455,824696014,imu_link,-0.01556396484375,0.09832763671875,-0.0009765625,0.99505615234375,[0. 0. 0. 0. 0. 0. 0. 0. 0.],0.0,0.0,0.0,[0. 0. 0. 0. 0. 0. 0. 0. 0.],-1.9140625,-0.3046875,9.58203125,[0. 0. 0. 0. 0. 0. 0. 0. 0.]
1742663455848982178,1742663455,847217388,imu_link,-0.01556396484375,0.09832763671875,-0.0009765625,0.99505615234375,[0. 0. 0. 0. 0. 0. 0. 0. 0.],0.0,0.0,0.0,[0. 0. 0. 0. 0. 0. 0. 0. 0.],-1.9140625,-0.3046875,9.58203125,[0. 0. 0. 0. 0. 0. 0. 0. 0.]
1742663455871278458,1742663455,864689784,imu_link,-0.01556396484375,0.09832763671875,-0.0009765625,0.99505615234375,[0. 0. 0. 0. 0. 0. 0. 0. 0.],0.0,0.0,0.0,[0. 0. 0. 0. 0. 0. 0. 0. 0.],-1.9140625,-0.3046875,9.54296875,[0. 0. 0. 0. 0. 0. 0. 0. 0.]
1742663455898202843,1742663455,884696344,imu_link,-0.01556396484375,0.09832763671875,-0.0009765625,0.99505615234375,[0. 0. 0. 0. 0. 0. 0. 0. 0.],0.0,0.0,0.0,[0. 0. 0. 0. 0. 0. 0. 0. 0.],-1.9140625,-0.3046875,9.58203125,[0. 0. 0. 0. 0. 0. 0. 0. 0.]
1742663455907380460,1742663455,904662201,imu_link,-0.01556396484375,0.09832763671875,-0.0009765625,0.99505615234375,[0. 0. 0. 0. 0. 0. 0. 0. 0.],0.0,0.0,0.0,[0. 0. 0. 0. 0. 0. 0. 0. 0.],-1.9140625,-0.3046875,9.58203125,[0. 0. 0. 0. 0. 0. 0. 0. 0.]
1742663455941293744,1742663455,925033116,imu_link,-0.01556396484375,0.09832763671875,-0.0009765625,0.99505615234375,[0. 0. 0. 0. 0. 0. 0. 0. 0.],0.0,0.0,0.0,[0. 0. 0. 0. 0. 0. 0. 0. 0.],-1.9140625,-0.3046875,9.58203125,[0. 0. 0. 0. 0. 0. 0. 0. 0.]
1742663455949708004,1742663455,948002160,imu_link,-0.01556396484375,0.09832763671875,-0.0009765625,0.99505615234375,[0. 0. 0. 0. 0. 0. 0. 0. 0.],0.0,0.0,0.0,[0. 0. 0. 0. 0. 0. 0. 0. 0.],-1.9140625,-0.3046875,9.58203125,[0. 0. 0. 0. 0. 0. 0. 0. 0.]
1742663455971241909,1742663455,964721198,imu_link,-0.01556396484375,0.09832763671875,-0.0009765625,0.99505615234375,[0. 0. 0. 0. 0. 0. 0. 0. 0.],0.0,0.0,0.0,[0. 0. 0. 0. 0. 0. 0. 0. 0.],-1.9140625,-0.3046875,9.58203125,[0. 0. 0. 0. 0. 0. 0. 0. 0.]
1742663455997428548,1742663455,984685444,imu_link,-0.01556396484375,0.098388671875,-0.0009765625,0.99505615234375,[0. 0. 0. 0. 0. 0. 0. 0. 0.],0.0,0.0,0.0,[0. 0. 0. 0. 0. 0. 0. 0. 0.],-1.87890625,-0.3046875,9.5390625,[0. 0. 0. 0. 0. 0. 0. 0. 0.]
1742663456015623319,1742663456,4699504,imu_link,-0.01556396484375,0.098388671875,-0.0009765625,0.99505615234375,[0. 0. 0. 0. 0. 0. 0. 0. 0.],0.0,0.0,0.0,[0. 0. 0. 0. 0. 0. 0. 0. 0.],-1.87890625,-0.3046875,9.5390625,[0. 0. 0. 0. 0. 0. 0. 0. 0.]
1742663456027421268,1742663456,24650046,imu_link,-0.01556396484375,0.098388671875,-0.0009765625,0.99505615234375,[0. 0. 0. 0. 0. 0. 0. 0. 0.],0.0,0.0,0.0,[0. 0. 0. 0. 0. 0. 0. 0. 0.],-1.9140625,-0.3046875,9.58203125,[0. 0. 0. 0. 0. 0. 0. 0. 0.]
1742663456057394970,1742663456,44721811,imu_link,-0.01556396484375,0.098388671875,-0.0009765625,0.99505615234375,[0. 0. 0. 0. 0. 0. 0. 0. 0.],0.0,0.0,0.0,[0. 0. 0. 0. 0. 0. 0. 0. 0.],-1.9140625,-0.3046875,9.58203125,[0. 0. 0. 0. 0. 0. 0. 0. 0.]
1742663456070598392,1742663456,64682038,imu_link,-0.01556396484375,0.098388671875,-0.0009765625,0.99505615234375,[0. 0. 0. 0. 0. 0. 0. 0. 0.],0.0,0.0,0.0,[0. 0. 0. 0. 0. 0. 0. 0. 0.],-1.9140625,-0.3046875,9.58203125,[0. 0. 0. 0. 0. 0. 0. 0. 0.]
1742663456097088126,1742663456,84728080,imu_link,-0.01556396484375,0.098388671875,-0.0009765625,0.99505615234375,[0. 0. 0. 0. 0. 0. 0. 0. 0.],0.0,0.0,0.0,[0. 0. 0. 0. 0. 0. 0. 0. 0.],-1.9140625,-0.3046875,9.58203125,[0. 0. 0. 0. 0. 0. 0. 0. 0.]
1742663456115579028,1742663456,104854030,imu_link,-0.01556396484375,0.098388671875,-0.0009765625,0.99505615234375,[0. 0. 0. 0. 0. 0. 0. 0. 0.],0.0,0.0,0.0,[0. 0. 0. 0. 0. 0. 0. 0. 0.],-1.87890625,-0.3046875,9.578125,[0. 0. 0. 0. 0. 0. 0. 0. 0.]
1742663456127400534,1742663456,124671719,imu_link,-0.01556396484375,0.098388671875,-0.0009765625,0.99505615234375,[0. 0. 0. 0. 0. 0. 0. 0. 0.],0.0,0.0,0.0,[0. 0. 0. 0. 0. 0. 0. 0. 0.],-1.87890625,-0.3046875,9.578125,[0. 0. 0. 0. 0. 0. 0. 0. 0.]
1742663456157396087,1742663456,144724261,imu_link,-0.01556396484375,0.098388671875,-0.0009765625,0.99505615234375,[0. 0. 0. 0. 0. 0. 0. 0. 0.],0.0,0.0,0.0,[0. 0. 0. 0. 0. 0. 0. 0. 0.],-1.9140625,-0.3046875,9.58203125,[0. 0. 0. 0. 0. 0. 0. 0. 0.]
1742663456176033435,1742663456,164689322,imu_link,-0.01556396484375,0.098388671875,-0.0009765625,0.99505615234375,[0. 0. 0. 0. 0. 0. 0. 0. 0.],0.0,0.0,0.0,[0. 0. 0. 0. 0. 0. 0. 0. 0.],-1.9140625,-0.3046875,9.58203125,[0. 0. 0. 0. 0. 0. 0. 0. 0.]
1742663456199423407,1742663456,184732864,imu_link,-0.01556396484375,0.098388671875,-0.0009765625,0.99505615234375,[0. 0. 0. 0. 0. 0. 0. 0. 0.],0.0,0.0,0.0,[0. 0. 0. 0. 0. 0. 0. 0. 0.],-1.9140625,-0.3046875,9.58203125,[0. 0. 0. 0. 0. 0. 0. 0. 0.]
1742663456206783624,1742663456,204658739,imu_link,-0.01556396484375,0.098388671875,-0.0009765625,0.99505615234375,[0. 0. 0. 0. 0. 0. 0. 0. 0.],0.0,0.0,0.0,[0. 0. 0. 0. 0. 0. 0. 0. 0.],-1.9140625,-0.3046875,9.58203125,[0. 0. 0. 0. 0. 0. 0. 0. 0.]
1742663456240313997,1742663456,224711337,imu_link,-0.01556396484375,0.09832763671875,-0.0009765625,0.99505615234375,[0. 0. 0. 0. 0. 0. 0. 0. 0.],0.0,0.0,0.0,[0. 0. 0. 0. 0. 0. 0. 0. 0.],-1.9140625,-0.3046875,9.58203125,[0. 0. 0. 0. 0. 0. 0. 0. 0.]
1742663456247477101,1742663456,244634397,imu_link,-0.01556396484375,0.09832763671875,-0.0009765625,0.99505615234375,[0. 0. 0. 0. 0. 0. 0. 0. 0.],0.0,0.0,0.0,[0. 0. 0. 0. 0. 0. 0. 0. 0.],-1.9140625,-0.3046875,9.58203125,[0. 0. 0. 0. 0. 0. 0. 0. 0.]
1742663456274662488,1742663456,264665698,imu_link,-0.01556396484375,0.09832763671875,-0.0009765625,0.99505615234375,[0. 0. 0. 0. 0. 0. 0. 0. 0.],0.0,0.0,0.0,[0. 0. 0. 0. 0. 0. 0. 0. 0.],-1.9140625,-0.3046875,9.58203125,[0. 0. 0. 0. 0. 0. 0. 0. 0.]
1742663456301956820,1742663456,284899483,imu_link,-0.01556396484375,0.09832763671875,-0.0009765625,0.99505615234375,[0. 0. 0. 0. 0. 0. 0. 0. 0.],0.0,0.0,0.0,[0. 0. 0. 0. 0. 0. 0. 0. 0.],-1.9140625,-0.3046875,9.58203125,[0. 0. 0. 0. 0. 0. 0. 0. 0.]
1742663456306905427,1742663456,304820061,imu_link,-0.01556396484375,0.09832763671875,-0.0009765625,0.99505615234375,[0. 0. 0. 0. 0. 0. 0. 0. 0.],0.0,0.0,0.0,[0. 0. 0. 0. 0. 0. 0. 0. 0.],-1.9140625,-0.3046875,9.58203125,[0. 0. 0. 0. 0. 0. 0. 0. 0.]
1742663456340451690,1742663456,324710695,imu_link,-0.01556396484375,0.09832763671875,-0.0009765625,0.99505615234375,[0. 0. 0. 0. 0. 0. 0. 0. 0.],0.0,0.0,0.0,[0. 0. 0. 0. 0. 0. 0. 0. 0.],-1.9140625,-0.3046875,9.58203125,[0. 0. 0. 0. 0. 0. 0. 0. 0.]
1742663456346761991,1742663456,344620070,imu_link,-0.01556396484375,0.09832763671875,-0.0009765625,0.99505615234375,[0. 0. 0. 0. 0. 0. 0. 0. 0.],0.0,0.0,0.0,[0. 0. 0. 0. 0. 0. 0. 0. 0.],-1.9140625,-0.3046875,9.58203125,[0. 0. 0. 0. 0. 0. 0. 0. 0.]
1742663456375411129,1742663456,364702186,imu_link,-0.01556396484375,0.09832763671875,-0.0009765625,0.99505615234375,[0. 0. 0. 0. 0. 0. 0. 0. 0.],0.0,0.0,0.0,[0. 0. 0. 0. 0. 0. 0. 0. 0.],-1.9140625,-0.3046875,9.58203125,[0. 0. 0. 0. 0. 0. 0. 0. 0.]
1742663456398495803,1742663456,384840581,imu_link,-0.01556396484375,0.09832763671875,-0.0009765625,0.99505615234375,[0. 0. 0. 0. 0. 0. 0. 0. 0.],0.0,0.0,0.0,[0. 0. 0. 0. 0. 0. 0. 0. 0.],-1.9140625,-0.3046875,9.58203125,[0. 0. 0. 0. 0. 0. 0. 0. 0.]
1742663456406834211,1742663456,404677289,imu_link,-0.01556396484375,0.09832763671875,-0.0009765625,0.99505615234375,[0. 0. 0. 0. 0. 0. 0. 0. 0.],0.0,0.0,0.0,[0. 0. 0. 0. 0. 0. 0. 0. 0.],-1.9140625,-0.3046875,9.58203125,[0. 0. 0. 0. 0. 0. 0. 0. 0.]
1742663456442194023,1742663456,424733646,imu_link,-0.01556396484375,0.09832763671875,-0.0009765625,0.99505615234375,[0. 0. 0. 0. 0. 0. 0. 0. 0.],0.0,0.0,0.0,[0. 0. 0. 0. 0. 0. 0. 0. 0.],-1.9140625,-0.3046875,9.58203125,[0. 0. 0. 0. 0. 0. 0. 0. 0.]
1742663456446975907,1742663456,444830337,imu_link,-0.01556396484375,0.09832763671875,-0.0009765625,0.99505615234375,[0. 0. 0. 0. 0. 0. 0. 0. 0.],0.0,0.0,0.0,[0. 0. 0. 0. 0. 0. 0. 0. 0.],-1.9140625,-0.3046875,9.58203125,[0. 0. 0. 0. 0. 0. 0. 0. 0.]
1742663456476068269,1742663456,464719970,imu_link,-0.01556396484375,0.09832763671875,-0.0009765625,0.99505615234375,[0. 0. 0. 0. 0. 0. 0. 0. 0.],0.0,0.0,0.0,[0. 0. 0. 0. 0. 0. 0. 0. 0.],-1.9140625,-0.3046875,9.58203125,[0. 0. 0. 0. 0. 0. 0. 0. 0.]
1742663456498366789,1742663456,484731661,imu_link,-0.01556396484375,0.09832763671875,-0.0009765625,0.99505615234375,[0. 0. 0. 0. 0. 0. 0. 0. 0.],0.0,0.0,0.0,[0. 0. 0. 0. 0. 0. 0. 0. 0.],-1.9140625,-0.3046875,9.58203125,[0. 0. 0. 0. 0. 0. 0. 0. 0.]
1742663456506844476,1742663456,504639239,imu_link,-0.01556396484375,0.09832763671875,-0.0009765625,0.99505615234375,[0. 0. 0. 0. 0. 0. 0. 0. 0.],0.0,0.0,0.0,[0. 0. 0. 0. 0. 0. 0. 0. 0.],-1.9140625,-0.3046875,9.58203125,[0. 0. 0. 0. 0. 0. 0. 0. 0.]
1742663456542272048,1742663456,524697078,imu_link,-0.01556396484375,0.09832763671875,-0.0009765625,0.99505615234375,[0. 0. 0. 0. 0. 0. 0. 0. 0.],0.0,0.0,0.0,[0. 0. 0. 0. 0. 0. 0. 0. 0.],-1.9140625,-0.3046875,9.58203125,[0. 0. 0. 0. 0. 0. 0. 0. 0.]
1742663456551855723,1742663456,548307255,imu_link,-0.01556396484375,0.09832763671875,-0.0009765625,0.99505615234375,[0. 0. 0. 0. 0. 0. 0. 0. 0.],0.0,0.0,0.0,[0. 0. 0. 0. 0. 0. 0. 0. 0.],-1.9140625,-0.3046875,9.58203125,[0. 0. 0. 0. 0. 0. 0. 0. 0.]
1742663456572245935,1742663456,564680662,imu_link,-0.01556396484375,0.09832763671875,-0.0009765625,0.99505615234375,[0. 0. 0. 0. 0. 0. 0. 0. 0.],0.0,0.0,0.0,[0. 0. 0. 0. 0. 0. 0. 0. 0.],-1.9140625,-0.3046875,9.58203125,[0. 0. 0. 0. 0. 0. 0. 0. 0.]
1742663456597181417,1742663456,584733871,imu_link,-0.01556396484375,0.09832763671875,-0.0009765625,0.99505615234375,[0. 0. 0. 0. 0. 0. 0. 0. 0.],0.0,0.0,0.0,[0. 0. 0. 0. 0. 0. 0. 0. 0.],-1.9140625,-0.3046875,9.58203125,[0. 0. 0. 0. 0. 0. 0. 0. 0.]
1742663456606673722,1742663456,604795135,imu_link,-0.01556396484375,0.09832763671875,-0.0009765625,0.99505615234375,[0. 0. 0. 0. 0. 0. 0. 0. 0.],0.0,0.0,0.0,[0. 0. 0. 0. 0. 0. 0. 0. 0.],-1.9140625,-0.3046875,9.58203125,[0. 0. 0. 0. 0. 0. 0. 0. 0.]
1742663456626856265,1742663456,624687603,imu_link,-0.01556396484375,0.09832763671875,-0.0009765625,0.99505615234375,[0. 0. 0. 0. 0. 0. 0. 0. 0.],0.0,0.0,0.0,[0. 0. 0. 0. 0. 0. 0. 0. 0.],-1.87890625,-0.3046875,9.578125,[0. 0. 0. 0. 0. 0. 0. 0. 0.]
1742663456661503110,1742663456,644721460,imu_link,-0.01556396484375,0.09832763671875,-0.0009765625,0.99505615234375,[0. 0. 0. 0. 0. 0. 0. 0. 0.],0.0,0.0,0.0,[0. 0. 0. 0. 0. 0. 0. 0. 0.],-1.9140625,-0.3046875,9.58203125,[0. 0. 0. 0. 0. 0. 0. 0. 0.]
1742663456666780201,1742663456,664617834,imu_link,-0.01556396484375,0.09832763671875,-0.0009765625,0.99505615234375,[0. 0. 0. 0. 0. 0. 0. 0. 0.],0.0,0.0,0.0,[0. 0. 0. 0. 0. 0. 0. 0. 0.],-1.9140625,-0.3046875,9.58203125,[0. 0. 0. 0. 0. 0. 0. 0. 0.]
1742663456697138553,1742663456,684730766,imu_link,-0.01556396484375,0.09832763671875,-0.0009765625,0.99505615234375,[0. 0. 0. 0. 0. 0. 0. 0. 0.],0.0,0.0,0.0,[0. 0. 0. 0. 0. 0. 0. 0. 0.],-1.9140625,-0.3046875,9.58203125,[0. 0. 0. 0. 0. 0. 0. 0. 0.]
1742663456715864105,1742663456,704659493,imu_link,-0.01556396484375,0.09832763671875,-0.0009765625,0.99505615234375,[0. 0. 0. 0. 0. 0. 0. 0. 0.],0.0,0.0,0.0,[0. 0. 0. 0. 0. 0. 0. 0. 0.],-1.9140625,-0.3046875,9.58203125,[0. 0. 0. 0. 0. 0. 0. 0. 0.]
1742663456726656511,1742663456,724663998,imu_link,-0.01556396484375,0.09832763671875,-0.0009765625,0.99505615234375,[0. 0. 0. 0. 0. 0. 0. 0. 0.],0.0,0.0,0.0,[0. 0. 0. 0. 0. 0. 0. 0. 0.],-1.9140625,-0.3046875,9.58203125,[0. 0. 0. 0. 0. 0. 0. 0. 0.]
1742663456761393245,1742663456,744723114,imu_link,-0.01556396484375,0.09832763671875,-0.0009765625,0.99505615234375,[0. 0. 0. 0. 0. 0. 0. 0. 0.],0.0,0.0,0.0,[0. 0. 0. 0. 0. 0. 0. 0. 0.],-1.9140625,-0.3046875,9.58203125,[0. 0. 0. 0. 0. 0. 0. 0. 0.]
1742663456771300960,1742663456,764635618,imu_link,-0.01556396484375,0.09832763671875,-0.0009765625,0.99505615234375,[0. 0. 0. 0. 0. 0. 0. 0. 0.],0.0,0.0,0.0,[0. 0. 0. 0. 0. 0. 0. 0. 0.],-1.9140625,-0.3046875,9.58203125,[0. 0. 0. 0. 0. 0. 0. 0. 0.]
1742663456802011259,1742663456,784954644,imu_link,-0.01556396484375,0.09832763671875,-0.0009765625,0.99505615234375,[0. 0. 0. 0. 0. 0. 0. 0. 0.],0.0,0.0,0.0,[0. 0. 0. 0. 0. 0. 0. 0. 0.],-1.9140625,-0.3046875,9.58203125,[0. 0. 0. 0. 0. 0. 0. 0. 0.]
1742663456806700994,1742663456,804976945,imu_link,-0.01556396484375,0.09832763671875,-0.0009765625,0.99505615234375,[0. 0. 0. 0. 0. 0. 0. 0. 0.],0.0,0.0,0.0,[0. 0. 0. 0. 0. 0. 0. 0. 0.],-1.9140625,-0.3046875,9.58203125,[0. 0. 0. 0. 0. 0. 0. 0. 0.]
1742663456826619036,1742663456,824709949,imu_link,-0.01556396484375,0.09832763671875,-0.0009765625,0.99505615234375,[0. 0. 0. 0. 0. 0. 0. 0. 0.],0.0,0.0,0.0,[0. 0. 0. 0. 0. 0. 0. 0. 0.],-1.9140625,-0.3046875,9.58203125,[0. 0. 0. 0. 0. 0. 0. 0. 0.]
1742663456857653170,1742663456,844722602,imu_link,-0.01556396484375,0.0982666015625,-0.0009765625,0.99505615234375,[0. 0. 0. 0. 0. 0. 0. 0. 0.],0.0,0.0,0.0,[0. 0. 0. 0. 0. 0. 0. 0. 0.],-1.9140625,-0.3046875,9.58203125,[0. 0. 0. 0. 0. 0. 0. 0. 0.]
1742663456869285434,1742663456,866904196,imu_link,-0.01556396484375,0.0982666015625,-0.0009765625,0.99505615234375,[0. 0. 0. 0. 0. 0. 0. 0. 0.],0.0,0.0,0.0,[0. 0. 0. 0. 0. 0. 0. 0. 0.],-1.9140625,-0.3046875,9.58203125,[0. 0. 0. 0. 0. 0. 0. 0. 0.]
1742663456901120833,1742663456,884884465,imu_link,-0.01556396484375,0.0982666015625,-0.0009765625,0.99505615234375,[0. 0. 0. 0. 0. 0. 0. 0. 0.],0.0,0.0,0.0,[0. 0. 0. 0. 0. 0. 0. 0. 0.],-1.9140625,-0.3046875,9.58203125,[0. 0. 0. 0. 0. 0. 0. 0. 0.]
1742663456906355665,1742663456,904622746,imu_link,-0.01556396484375,0.0982666015625,-0.0009765625,0.99505615234375,[0. 0. 0. 0. 0. 0. 0. 0. 0.],0.0,0.0,0.0,[0. 0. 0. 0. 0. 0. 0. 0. 0.],-1.9140625,-0.3046875,9.58203125,[0. 0. 0. 0. 0. 0. 0. 0. 0.]
1742663456941692014,1742663456,924714103,imu_link,-0.01556396484375,0.09832763671875,-0.0009765625,0.99505615234375,[0. 0. 0. 0. 0. 0. 0. 0. 0.],0.0,0.0,0.0,[0. 0. 0. 0. 0. 0. 0. 0. 0.],-1.9140625,-0.3046875,9.58203125,[0. 0. 0. 0. 0. 0. 0. 0. 0.]
1742663456946553306,1742663456,944797016,imu_link,-0.01556396484375,0.09832763671875,-0.0009765625,0.99505615234375,[0. 0. 0. 0. 0. 0. 0. 0. 0.],0.0,0.0,0.0,[0. 0. 0. 0. 0. 0. 0. 0. 0.],-1.9140625,-0.3046875,9.58203125,[0. 0. 0. 0. 0. 0. 0. 0. 0.]
1742663456975667464,1742663456,964729965,imu_link,-0.01556396484375,0.09832763671875,-0.0009765625,0.99505615234375,[0. 0. 0. 0. 0. 0. 0. 0. 0.],0.0,0.0,0.0,[0. 0. 0. 0. 0. 0. 0. 0. 0.],-1.9140625,-0.3046875,9.58203125,[0. 0. 0. 0. 0. 0. 0. 0. 0.]
1742663456997493537,1742663456,984730100,imu_link,-0.01556396484375,0.09832763671875,-0.0009765625,0.99505615234375,[0. 0. 0. 0. 0. 0. 0. 0. 0.],0.0,0.0,0.0,[0. 0. 0. 0. 0. 0. 0. 0. 0.],-1.9140625,-0.3046875,9.58203125,[0. 0. 0. 0. 0. 0. 0. 0. 0.]
1742663457006483153,1742663457,4691456,imu_link,-0.01556396484375,0.09832763671875,-0.0009765625,0.99505615234375,[0. 0. 0. 0. 0. 0. 0. 0. 0.],0.0,0.0,0.0,[0. 0. 0. 0. 0. 0. 0. 0. 0.],-1.9140625,-0.3046875,9.58203125,[0. 0. 0. 0. 0. 0. 0. 0. 0.]
1742663457040230862,1742663457,24727517,imu_link,-0.01556396484375,0.09832763671875,-0.0009765625,0.99505615234375,[0. 0. 0. 0. 0. 0. 0. 0. 0.],0.0,0.0,0.0,[0. 0. 0. 0. 0. 0. 0. 0. 0.],-1.87890625,-0.3046875,9.578125,[0. 0. 0. 0. 0. 0. 0. 0. 0.]
1742663457046430885,1742663457,44634040,imu_link,-0.01556396484375,0.09832763671875,-0.0009765625,0.99505615234375,[0. 0. 0. 0. 0. 0. 0. 0. 0.],0.0,0.0,0.0,[0. 0. 0. 0. 0. 0. 0. 0. 0.],-1.87890625,-0.3046875,9.578125,[0. 0. 0. 0. 0. 0. 0. 0. 0.]
1742663457075821768,1742663457,64683360,imu_link,-0.01556396484375,0.09832763671875,-0.0009765625,0.99505615234375,[0. 0. 0. 0. 0. 0. 0. 0. 0.],0.0,0.0,0.0,[0. 0. 0. 0. 0. 0. 0. 0. 0.],-1.9140625,-0.3046875,9.58203125,[0. 0. 0. 0. 0. 0. 0. 0. 0.]
1742663457097032281,1742663457,84697309,imu_link,-0.01556396484375,0.09832763671875,-0.0009765625,0.99505615234375,[0. 0. 0. 0. 0. 0. 0. 0. 0.],0.0,0.0,0.0,[0. 0. 0. 0. 0. 0. 0. 0. 0.],-1.9140625,-0.3046875,9.58203125,[0. 0. 0. 0. 0. 0. 0. 0. 0.]
1742663457106755717,1742663457,104817555,imu_link,-0.01556396484375,0.09832763671875,-0.0009765625,0.99505615234375,[0. 0. 0. 0. 0. 0. 0. 0. 0.],0.0,0.0,0.0,[0. 0. 0. 0. 0. 0. 0. 0. 0.],-1.9140625,-0.3046875,9.58203125,[0. 0. 0. 0. 0. 0. 0. 0. 0.]
1742663457141796897,1742663457,124727652,imu_link,-0.01556396484375,0.09832763671875,-0.0009765625,0.99505615234375,[0. 0. 0. 0. 0. 0. 0. 0. 0.],0.0,0.0,0.0,[0. 0. 0. 0. 0. 0. 0. 0. 0.],-1.9140625,-0.3046875,9.58203125,[0. 0. 0. 0. 0. 0. 0. 0. 0.]
1742663457151386128,1742663457,148013013,imu_link,-0.01556396484375,0.09832763671875,-0.0009765625,0.99505615234375,[0. 0. 0. 0. 0. 0. 0. 0. 0.],0.0,0.0,0.0,[0. 0. 0. 0. 0. 0. 0. 0. 0.],-1.9140625,-0.3046875,9.58203125,[0. 0. 0. 0. 0. 0. 0. 0. 0.]
1742663457171604616,1742663457,164682773,imu_link,-0.01556396484375,0.09832763671875,-0.0009765625,0.99505615234375,[0. 0. 0. 0. 0. 0. 0. 0. 0.],0.0,0.0,0.0,[0. 0. 0. 0. 0. 0. 0. 0. 0.],-1.9140625,-0.3046875,9.58203125,[0. 0. 0. 0. 0. 0. 0. 0. 0.]
1742663457197219770,1742663457,184700926,imu_link,-0.01556396484375,0.09832763671875,-0.0009765625,0.99505615234375,[0. 0. 0. 0. 0. 0. 0. 0. 0.],0.0,0.0,0.0,[0. 0. 0. 0. 0. 0. 0. 0. 0.],-1.9140625,-0.3046875,9.58203125,[0. 0. 0. 0. 0. 0. 0. 0. 0.]
1742663457206423980,1742663457,204675412,imu_link,-0.01556396484375,0.09832763671875,-0.0009765625,0.99505615234375,[0. 0. 0. 0. 0. 0. 0. 0. 0.],0.0,0.0,0.0,[0. 0. 0. 0. 0. 0. 0. 0. 0.],-1.9140625,-0.3046875,9.58203125,[0. 0. 0. 0. 0. 0. 0. 0. 0.]
1742663457226511096,1742663457,224726936,imu_link,-0.01556396484375,0.09832763671875,-0.0009765625,0.99505615234375,[0. 0. 0. 0. 0. 0. 0. 0. 0.],0.0,0.0,0.0,[0. 0. 0. 0. 0. 0. 0. 0. 0.],-1.9140625,-0.3046875,9.58203125,[0. 0. 0. 0. 0. 0. 0. 0. 0.]
1742663457251407578,1742663457,244678126,imu_link,-0.01556396484375,0.09832763671875,-0.0009765625,0.99505615234375,[0. 0. 0. 0. 0. 0. 0. 0. 0.],0.0,0.0,0.0,[0. 0. 0. 0. 0. 0. 0. 0. 0.],-1.87890625,-0.3046875,9.578125,[0. 0. 0. 0. 0. 0. 0. 0. 0.]
1742663457275386221,1742663457,264697427,imu_link,-0.01556396484375,0.09832763671875,-0.0009765625,0.99505615234375,[0. 0. 0. 0. 0. 0. 0. 0. 0.],0.0,0.0,0.0,[0. 0. 0. 0. 0. 0. 0. 0. 0.],-1.87890625,-0.3046875,9.578125,[0. 0. 0. 0. 0. 0. 0. 0. 0.]
1742663457296635864,1742663457,284798655,imu_link,-0.01556396484375,0.09832763671875,-0.0009765625,0.99505615234375,[0. 0. 0. 0. 0. 0. 0. 0. 0.],0.0,0.0,0.0,[0. 0. 0. 0. 0. 0. 0. 0. 0.],-1.9140625,-0.3046875,9.58203125,[0. 0. 0. 0. 0. 0. 0. 0. 0.]
1742663457315150507,1742663457,304704752,imu_link,-0.01556396484375,0.09832763671875,-0.0009765625,0.99505615234375,[0. 0. 0. 0. 0. 0. 0. 0. 0.],0.0,0.0,0.0,[0. 0. 0. 0. 0. 0. 0. 0. 0.],-1.87890625,-0.3046875,9.578125,[0. 0. 0. 0. 0. 0. 0. 0. 0.]
1742663457326602473,1742663457,324743016,imu_link,-0.01556396484375,0.09832763671875,-0.0009765625,0.99505615234375,[0. 0. 0. 0. 0. 0. 0. 0. 0.],0.0,0.0,0.0,[0. 0. 0. 0. 0. 0. 0. 0. 0.],-1.87890625,-0.3046875,9.578125,[0. 0. 0. 0. 0. 0. 0. 0. 0.]
1742663457346444384,1742663457,344683502,imu_link,-0.01556396484375,0.0982666015625,-0.0009765625,0.99505615234375,[0. 0. 0. 0. 0. 0. 0. 0. 0.],0.0,0.0,0.0,[0. 0. 0. 0. 0. 0. 0. 0. 0.],-1.9140625,-0.3046875,9.58203125,[0. 0. 0. 0. 0. 0. 0. 0. 0.]
1742663457375208819,1742663457,364710063,imu_link,-0.01556396484375,0.0982666015625,-0.0009765625,0.99505615234375,[0. 0. 0. 0. 0. 0. 0. 0. 0.],0.0,0.0,0.0,[0. 0. 0. 0. 0. 0. 0. 0. 0.],-1.9140625,-0.3046875,9.58203125,[0. 0. 0. 0. 0. 0. 0. 0. 0.]
1742663457396558703,1742663457,384694975,imu_link,-0.01556396484375,0.0982666015625,-0.0009765625,0.99505615234375,[0. 0. 0. 0. 0. 0. 0. 0. 0.],0.0,0.0,0.0,[0. 0. 0. 0. 0. 0. 0. 0. 0.],-1.9140625,-0.3046875,9.58203125,[0. 0. 0. 0. 0. 0. 0. 0. 0.]
1742663457406433547,1742663457,404673350,imu_link,-0.01556396484375,0.0982666015625,-0.0009765625,0.99505615234375,[0. 0. 0. 0. 0. 0. 0. 0. 0.],0.0,0.0,0.0,[0. 0. 0. 0. 0. 0. 0. 0. 0.],-1.9140625,-0.3046875,9.58203125,[0. 0. 0. 0. 0. 0. 0. 0. 0.]
1742663457426766017,1742663457,424770707,imu_link,-0.01556396484375,0.0982666015625,-0.0009765625,0.99505615234375,[0. 0. 0. 0. 0. 0. 0. 0. 0.],0.0,0.0,0.0,[0. 0. 0. 0. 0. 0. 0. 0. 0.],-1.9140625,-0.3046875,9.58203125,[0. 0. 0. 0. 0. 0. 0. 0. 0.]
1742663457446353816,1742663457,444633360,imu_link,-0.01556396484375,0.0982666015625,-0.0009765625,0.99505615234375,[0. 0. 0. 0. 0. 0. 0. 0. 0.],0.0,0.0,0.0,[0. 0. 0. 0. 0. 0. 0. 0. 0.],-1.9140625,-0.3046875,9.58203125,[0. 0. 0. 0. 0. 0. 0. 0. 0.]
1742663457475573975,1742663457,464792088,imu_link,-0.01556396484375,0.0982666015625,-0.0009765625,0.99505615234375,[0. 0. 0. 0. 0. 0. 0. 0. 0.],0.0,0.0,0.0,[0. 0. 0. 0. 0. 0. 0. 0. 0.],-1.9140625,-0.3046875,9.58203125,[0. 0. 0. 0. 0. 0. 0. 0. 0.]
1742663457500598254,1742663457,484665499,imu_link,-0.01556396484375,0.0982666015625,-0.0009765625,0.99505615234375,[0. 0. 0. 0. 0. 0. 0. 0. 0.],0.0,0.0,0.0,[0. 0. 0. 0. 0. 0. 0. 0. 0.],-1.9140625,-0.3046875,9.58203125,[0. 0. 0. 0. 0. 0. 0. 0. 0.]
1742663457509984706,1742663457,504640819,imu_link,-0.01556396484375,0.0982666015625,-0.0009765625,0.99505615234375,[0. 0. 0. 0. 0. 0. 0. 0. 0.],0.0,0.0,0.0,[0. 0. 0. 0. 0. 0. 0. 0. 0.],-1.9140625,-0.3046875,9.58203125,[0. 0. 0. 0. 0. 0. 0. 0. 0.]
1742663457540376207,1742663457,524715380,imu_link,-0.01556396484375,0.0982666015625,-0.0009765625,0.99505615234375,[0. 0. 0. 0. 0. 0. 0. 0. 0.],0.0,0.0,0.0,[0. 0. 0. 0. 0. 0. 0. 0. 0.],-1.83984375,-0.3046875,9.5390625,[0. 0. 0. 0. 0. 0. 0. 0. 0.]
1742663457546364247,1742663457,544628514,imu_link,-0.01556396484375,0.0982666015625,-0.0009765625,0.99505615234375,[0. 0. 0. 0. 0. 0. 0. 0. 0.],0.0,0.0,0.0,[0. 0. 0. 0. 0. 0. 0. 0. 0.],-1.83984375,-0.3046875,9.5390625,[0. 0. 0. 0. 0. 0. 0. 0. 0.]
1742663457575208534,1742663457,564647963,imu_link,-0.01556396484375,0.0982666015625,-0.0009765625,0.99505615234375,[0. 0. 0. 0. 0. 0. 0. 0. 0.],0.01171875,-0.001953125,0.025390625,[0. 0. 0. 0. 0. 0. 0. 0. 0.],-1.37890625,-0.61328125,9.58203125,[0. 0. 0. 0. 0. 0. 0. 0. 0.]
1742663457596183971,1742663457,584649857,imu_link,-0.01531982421875,0.09820556640625,-0.00042724609375,0.99505615234375,[0. 0. 0. 0. 0. 0. 0. 0. 0.],0.01171875,-0.001953125,0.025390625,[0. 0. 0. 0. 0. 0. 0. 0. 0.],-0.8046875,-0.95703125,9.61328125,[0. 0. 0. 0. 0. 0. 0. 0. 0.]
1742663457610799718,1742663457,604644732,imu_link,-0.01531982421875,0.09820556640625,-0.00042724609375,0.99505615234375,[0. 0. 0. 0. 0. 0. 0. 0. 0.],0.01171875,-0.001953125,0.025390625,[0. 0. 0. 0. 0. 0. 0. 0. 0.],-0.8046875,-0.95703125,9.61328125,[0. 0. 0. 0. 0. 0. 0. 0. 0.]
1742663457640215342,1742663457,624726089,imu_link,-0.0145263671875,0.09808349609375,0.0032958984375,0.99505615234375,[0. 0. 0. 0. 0. 0. 0. 0. 0.],0.01953125,0.001953125,0.173828125,[0. 0. 0. 0. 0. 0. 0. 0. 0.],-0.53515625,-0.8828125,9.69140625,[0. 0. 0. 0. 0. 0. 0. 0. 0.]
1742663457646411291,1742663457,644654575,imu_link,-0.0145263671875,0.09808349609375,0.0032958984375,0.99505615234375,[0. 0. 0. 0. 0. 0. 0. 0. 0.],0.01953125,0.001953125,0.173828125,[0. 0. 0. 0. 0. 0. 0. 0. 0.],-0.53515625,-0.8828125,9.69140625,[0. 0. 0. 0. 0. 0. 0. 0. 0.]
1742663457671210106,1742663457,664639987,imu_link,-0.0145263671875,0.09808349609375,0.0032958984375,0.99505615234375,[0. 0. 0. 0. 0. 0. 0. 0. 0.],-0.0078125,0.0078125,0.08203125,[0. 0. 0. 0. 0. 0. 0. 0. 0.],-0.65234375,-0.4609375,9.73046875,[0. 0. 0. 0. 0. 0. 0. 0. 0.]
1742663457697715636,1742663457,684722752,imu_link,-0.01470947265625,0.097900390625,0.005859375,0.99505615234375,[0. 0. 0. 0. 0. 0. 0. 0. 0.],-0.0078125,0.0078125,0.08203125,[0. 0. 0. 0. 0. 0. 0. 0. 0.],-0.69140625,-0.3046875,9.6484375,[0. 0. 0. 0. 0. 0. 0. 0. 0.]
1742663457710816298,1742663457,704662183,imu_link,-0.01470947265625,0.097900390625,0.005859375,0.99505615234375,[0. 0. 0. 0. 0. 0. 0. 0. 0.],-0.0078125,0.0078125,0.08203125,[0. 0. 0. 0. 0. 0. 0. 0. 0.],-0.69140625,-0.3046875,9.6484375,[0. 0. 0. 0. 0. 0. 0. 0. 0.]
1742663457736184895,1742663457,724736336,imu_link,-0.01544189453125,0.09765625,0.0074462890625,0.99505615234375,[0. 0. 0. 0. 0. 0. 0. 0. 0.],-0.037109375,0.01171875,0.068359375,[0. 0. 0. 0. 0. 0. 0. 0. 0.],-0.8828125,-0.3828125,9.54296875,[0. 0. 0. 0. 0. 0. 0. 0. 0.]
1742663457751368311,1742663457,744674563,imu_link,-0.01544189453125,0.09765625,0.0074462890625,0.99505615234375,[0. 0. 0. 0. 0. 0. 0. 0. 0.],-0.037109375,0.01171875,0.068359375,[0. 0. 0. 0. 0. 0. 0. 0. 0.],-1.33984375,-0.19140625,9.5390625,[0. 0. 0. 0. 0. 0. 0. 0. 0.]
1742663457771298816,1742663457,764732846,imu_link,-0.01544189453125,0.09765625,0.0074462890625,0.99505615234375,[0. 0. 0. 0. 0. 0. 0. 0. 0.],-0.0078125,0.017578125,0.154296875,[0. 0. 0. 0. 0. 0. 0. 0. 0.],-1.33984375,-0.19140625,9.5390625,[0. 0. 0. 0. 0. 0. 0. 0. 0.]
1742663457798561240,1742663457,784893259,imu_link,-0.01531982421875,0.0975341796875,0.010986328125,0.99505615234375,[0. 0. 0. 0. 0. 0. 0. 0. 0.],-0.0078125,0.017578125,0.154296875,[0. 0. 0. 0. 0. 0. 0. 0. 0.],-1.953125,0.078125,9.5390625,[0. 0. 0. 0. 0. 0. 0. 0. 0.]
1742663457814566681,1742663457,804632299,imu_link,-0.01531982421875,0.0975341796875,0.010986328125,0.99505615234375,[0. 0. 0. 0. 0. 0. 0. 0. 0.],-0.0078125,0.017578125,0.154296875,[0. 0. 0. 0. 0. 0. 0. 0. 0.],-1.953125,0.078125,9.5390625,[0. 0. 0. 0. 0. 0. 0. 0. 0.]
1742663457836203086,1742663457,824737046,imu_link,-0.01519775390625,0.09735107421875,0.01373291015625,0.99505615234375,[0. 0. 0. 0. 0. 0. 0. 0. 0.],0.005859375,0.009765625,0.107421875,[0. 0. 0. 0. 0. 0. 0. 0. 0.],-2.22265625,0.11328125,9.46484375,[0. 0. 0. 0. 0. 0. 0. 0. 0.]
1742663457847018177,1742663457,844621754,imu_link,-0.01519775390625,0.09735107421875,0.01373291015625,0.99505615234375,[0. 0. 0. 0. 0. 0. 0. 0. 0.],0.005859375,0.009765625,0.107421875,[0. 0. 0. 0. 0. 0. 0. 0. 0.],-2.3359375,0.15234375,9.6875,[0. 0. 0. 0. 0. 0. 0. 0. 0.]
1742663457873994636,1742663457,864707259,imu_link,-0.01519775390625,0.09735107421875,0.01373291015625,0.99505615234375,[0. 0. 0. 0. 0. 0. 0. 0. 0.],-0.029296875,0.009765625,0.005859375,[0. 0. 0. 0. 0. 0. 0. 0. 0.],-2.3359375,0.15234375,9.6875,[0. 0. 0. 0. 0. 0. 0. 0. 0.]
1742663457896172137,1742663457,884701968,imu_link,-0.01580810546875,0.09698486328125,0.01422119140625,0.99505615234375,[0. 0. 0. 0. 0. 0. 0. 0. 0.],-0.029296875,0.009765625,0.005859375,[0. 0. 0. 0. 0. 0. 0. 0. 0.],-2.453125,-0.078125,9.5,[0. 0. 0. 0. 0. 0. 0. 0. 0.]
1742663457914483779,1742663457,904683195,imu_link,-0.01580810546875,0.09698486328125,0.01422119140625,0.99505615234375,[0. 0. 0. 0. 0. 0. 0. 0. 0.],-0.025390625,0.001953125,-0.0234375,[0. 0. 0. 0. 0. 0. 0. 0. 0.],-2.4140625,-0.15234375,9.578125,[0. 0. 0. 0. 0. 0. 0. 0. 0.]
1742663457939806283,1742663457,924800626,imu_link,-0.01654052734375,0.09661865234375,0.013671875,0.9951171875,[0. 0. 0. 0. 0. 0. 0. 0. 0.],-0.025390625,0.001953125,-0.0234375,[0. 0. 0. 0. 0. 0. 0. 0. 0.],-2.4140625,-0.15234375,9.578125,[0. 0. 0. 0. 0. 0. 0. 0. 0.]
1742663457947042702,1742663457,944675334,imu_link,-0.01654052734375,0.09661865234375,0.013671875,0.9951171875,[0. 0. 0. 0. 0. 0. 0. 0. 0.],-0.025390625,0.001953125,-0.0234375,[0. 0. 0. 0. 0. 0. 0. 0. 0.],-2.296875,-0.3046875,9.4609375,[0. 0. 0. 0. 0. 0. 0. 0. 0.]
1742663457974952408,1742663457,964719839,imu_link,-0.01654052734375,0.09661865234375,0.013671875,0.9951171875,[0. 0. 0. 0. 0. 0. 0. 0. 0.],0.00390625,0.001953125,0.03125,[0. 0. 0. 0. 0. 0. 0. 0. 0.],-2.296875,-0.3046875,9.61328125,[0. 0. 0. 0. 0. 0. 0. 0. 0.]
1742663457989449746,1742663457,986118113,imu_link,-0.01666259765625,0.0963134765625,0.01416015625,0.9951171875,[0. 0. 0. 0. 0. 0. 0. 0. 0.],0.00390625,0.001953125,0.03125,[0. 0. 0. 0. 0. 0. 0. 0. 0.],-2.296875,-0.3046875,9.61328125,[0. 0. 0. 0. 0. 0. 0. 0. 0.]
1742663458015562218,1742663458,4716719,imu_link,-0.01666259765625,0.0963134765625,0.01416015625,0.9951171875,[0. 0. 0. 0. 0. 0. 0. 0. 0.],0.009765625,0.001953125,0.03125,[0. 0. 0. 0. 0. 0. 0. 0. 0.],-2.3359375,-0.19140625,9.54296875,[0. 0. 0. 0. 0. 0. 0. 0. 0.]
1742663458038202129,1742663458,24631483,imu_link,-0.01666259765625,0.0960693359375,0.01495361328125,0.9951171875,[0. 0. 0. 0. 0. 0. 0. 0. 0.],0.009765625,0.001953125,0.03125,[0. 0. 0. 0. 0. 0. 0. 0. 0.],-2.3359375,-0.19140625,9.54296875,[0. 0. 0. 0. 0. 0. 0. 0. 0.]
1742663458046975577,1742663458,44628673,imu_link,-0.01666259765625,0.0960693359375,0.01495361328125,0.9951171875,[0. 0. 0. 0. 0. 0. 0. 0. 0.],0.009765625,0.001953125,0.03125,[0. 0. 0. 0. 0. 0. 0. 0. 0.],-2.22265625,-0.23046875,9.578125,[0. 0. 0. 0. 0. 0. 0. 0. 0.]
1742663458084222568,1742663458,64846142,imu_link,-0.0169677734375,0.095703125,0.0142822265625,0.99517822265625,[0. 0. 0. 0. 0. 0. 0. 0. 0.],-0.005859375,0.0,-0.037109375,[0. 0. 0. 0. 0. 0. 0. 0. 0.],-2.0703125,-0.19140625,9.5390625,[0. 0. 0. 0. 0. 0. 0. 0. 0.]
1742663458089138120,1742663458,85845672,imu_link,-0.0169677734375,0.095703125,0.0142822265625,0.99517822265625,[0. 0. 0. 0. 0. 0. 0. 0. 0.],-0.005859375,0.0,-0.037109375,[0. 0. 0. 0. 0. 0. 0. 0. 0.],-2.0703125,-0.19140625,9.5390625,[0. 0. 0. 0. 0. 0. 0. 0. 0.]
1742663458112644297,1742663458,104653965,imu_link,-0.0169677734375,0.095703125,0.0142822265625,0.99517822265625,[0. 0. 0. 0. 0. 0. 0. 0. 0.],-0.01171875,0.0,-0.017578125,[0. 0. 0. 0. 0. 0. 0. 0. 0.],-1.83984375,-0.23046875,9.578125,[0. 0. 0. 0. 0. 0. 0. 0. 0.]
1742663458137509130,1742663458,124677063,imu_link,-0.017333984375,0.0953369140625,0.01373291015625,0.99517822265625,[0. 0. 0. 0. 0. 0. 0. 0. 0.],-0.01171875,0.0,-0.017578125,[0. 0. 0. 0. 0. 0. 0. 0. 0.],-1.5703125,-0.3828125,9.54296875,[0. 0. 0. 0. 0. 0. 0. 0. 0.]
1742663458147712014,1742663458,144648901,imu_link,-0.017333984375,0.0953369140625,0.01373291015625,0.99517822265625,[0. 0. 0. 0. 0. 0. 0. 0. 0.],-0.01171875,0.0,-0.017578125,[0. 0. 0. 0. 0. 0. 0. 0. 0.],-1.5703125,-0.3828125,9.54296875,[0. 0. 0. 0. 0. 0. 0. 0. 0.]
1742663458185593898,1742663458,164735313,imu_link,-0.01751708984375,0.0950927734375,0.0137939453125,0.9952392578125,[0. 0. 0. 0. 0. 0. 0. 0. 0.],-0.013671875,0.005859375,0.001953125,[0. 0. 0. 0. 0. 0. 0. 0. 0.],-1.53125,-0.26953125,9.65234375,[0. 0. 0. 0. 0. 0. 0. 0. 0.]
1742663458194560625,1742663458,192847965,imu_link,-0.01751708984375,0.0950927734375,0.0137939453125,0.9952392578125,[0. 0. 0. 0. 0. 0. 0. 0. 0.],-0.013671875,0.005859375,0.001953125,[0. 0. 0. 0. 0. 0. 0. 0. 0.],-1.609375,-0.26953125,9.61328125,[0. 0. 0. 0. 0. 0. 0. 0. 0.]
1742663458211969075,1742663458,204626415,imu_link,-0.01751708984375,0.0950927734375,0.0137939453125,0.9952392578125,[0. 0. 0. 0. 0. 0. 0. 0. 0.],0.0,0.0078125,-0.02734375,[0. 0. 0. 0. 0. 0. 0. 0. 0.],-1.609375,-0.26953125,9.61328125,[0. 0. 0. 0. 0. 0. 0. 0. 0.]
1742663458238984461,1742663458,224724939,imu_link,-0.01776123046875,0.0948486328125,0.01324462890625,0.9952392578125,[0. 0. 0. 0. 0. 0. 0. 0. 0.],0.0,0.0078125,-0.02734375,[0. 0. 0. 0. 0. 0. 0. 0. 0.],-1.45703125,-0.3828125,9.609375,[0. 0. 0. 0. 0. 0. 0. 0. 0.]
1742663458247412277,1742663458,244678147,imu_link,-0.01776123046875,0.0948486328125,0.01324462890625,0.9952392578125,[0. 0. 0. 0. 0. 0. 0. 0. 0.],0.0,0.0078125,-0.02734375,[0. 0. 0. 0. 0. 0. 0. 0. 0.],-1.45703125,-0.3828125,9.609375,[0. 0. 0. 0. 0. 0. 0. 0. 0.]
1742663458272335000,1742663458,264853820,imu_link,-0.01776123046875,0.0948486328125,0.01324462890625,0.9952392578125,[0. 0. 0. 0. 0. 0. 0. 0. 0.],0.00390625,0.00390625,0.0078125,[0. 0. 0. 0. 0. 0. 0. 0. 0.],-1.609375,-0.3828125,9.5,[0. 0. 0. 0. 0. 0. 0. 0. 0.]
1742663458299805444,1742663458,284893566,imu_link,-0.0179443359375,0.0946044921875,0.01324462890625,0.9952392578125,[0. 0. 0. 0. 0. 0. 0. 0. 0.],0.00390625,0.00390625,0.0078125,[0. 0. 0. 0. 0. 0. 0. 0. 0.],-1.9921875,-0.23046875,9.609375,[0. 0. 0. 0. 0. 0. 0. 0. 0.]
1742663458315270251,1742663458,304676828,imu_link,-0.0179443359375,0.0946044921875,0.01324462890625,0.9952392578125,[0. 0. 0. 0. 0. 0. 0. 0. 0.],0.009765625,0.001953125,-0.01953125,[0. 0. 0. 0. 0. 0. 0. 0. 0.],-1.9921875,-0.23046875,9.609375,[0. 0. 0. 0. 0. 0. 0. 0. 0.]
1742663458337503141,1742663458,324745056,imu_link,-0.01812744140625,0.09442138671875,0.0128173828125,0.99530029296875,[0. 0. 0. 0. 0. 0. 0. 0. 0.],0.009765625,0.001953125,-0.01953125,[0. 0. 0. 0. 0. 0. 0. 0. 0.],-2.14453125,-0.3046875,9.54296875,[0. 0. 0. 0. 0. 0. 0. 0. 0.]
1742663458352194481,1742663458,344669393,imu_link,-0.01812744140625,0.09442138671875,0.0128173828125,0.99530029296875,[0. 0. 0. 0. 0. 0. 0. 0. 0.],0.009765625,0.001953125,-0.01953125,[0. 0. 0. 0. 0. 0. 0. 0. 0.],-2.14453125,-0.34375,9.5390625,[0. 0. 0. 0. 0. 0. 0. 0. 0.]
1742663458372938602,1742663458,364821751,imu_link,-0.01812744140625,0.09442138671875,0.0128173828125,0.99530029296875,[0. 0. 0. 0. 0. 0. 0. 0. 0.],0.00390625,0.00390625,0.00390625,[0. 0. 0. 0. 0. 0. 0. 0. 0.],-2.14453125,-0.34375,9.5390625,[0. 0. 0. 0. 0. 0. 0. 0. 0.]
1742663458399583985,1742663458,384685977,imu_link,-0.018310546875,0.09423828125,0.01275634765625,0.99530029296875,[0. 0. 0. 0. 0. 0. 0. 0. 0.],0.00390625,0.00390625,0.00390625,[0. 0. 0. 0. 0. 0. 0. 0. 0.],-2.22265625,-0.26953125,9.54296875,[0. 0. 0. 0. 0. 0. 0. 0. 0.]
1742663458417079602,1742663458,404668093,imu_link,-0.018310546875,0.09423828125,0.01275634765625,0.99530029296875,[0. 0. 0. 0. 0. 0. 0. 0. 0.],-0.00390625,0.001953125,-0.017578125,[0. 0. 0. 0. 0. 0. 0. 0. 0.],-2.18359375,-0.26953125,9.578125,[0. 0. 0. 0. 0. 0. 0. 0. 0.]
1742663458436872569,1742663458,424701302,imu_link,-0.01861572265625,0.093994140625,0.01239013671875,0.99530029296875,[0. 0. 0. 0. 0. 0. 0. 0. 0.],-0.00390625,0.001953125,-0.017578125,[0. 0. 0. 0. 0. 0. 0. 0. 0.],-2.18359375,-0.26953125,9.578125,[0. 0. 0. 0. 0. 0. 0. 0. 0.]
1742663458448087940,1742663458,444683029,imu_link,-0.01861572265625,0.093994140625,0.01239013671875,0.99530029296875,[0. 0. 0. 0. 0. 0. 0. 0. 0.],-0.00390625,0.001953125,-0.017578125,[0. 0. 0. 0. 0. 0. 0. 0. 0.],-2.0703125,-0.34375,9.609375,[0. 0. 0. 0. 0. 0. 0. 0. 0.]
1742663458486226937,1742663458,465569132,imu_link,-0.01885986328125,0.09375,0.01220703125,0.995361328125,[0. 0. 0. 0. 0. 0. 0. 0. 0.],-0.0078125,0.005859375,-0.00390625,[0. 0. 0. 0. 0. 0. 0. 0. 0.],-1.953125,-0.34375,9.5390625,[0. 0. 0. 0. 0. 0. 0. 0. 0.]
1742663458492839778,1742663458,489529811,imu_link,-0.01885986328125,0.09375,0.01220703125,0.995361328125,[0. 0. 0. 0. 0. 0. 0. 0. 0.],-0.0078125,0.005859375,-0.00390625,[0. 0. 0. 0. 0. 0. 0. 0. 0.],-1.953125,-0.34375,9.5390625,[0. 0. 0. 0. 0. 0. 0. 0. 0.]
1742663458517468499,1742663458,504728006,imu_link,-0.01885986328125,0.09375,0.01220703125,0.995361328125,[0. 0. 0. 0. 0. 0. 0. 0. 0.],-0.009765625,0.00390625,-0.01171875,[0. 0. 0. 0. 0. 0. 0. 0. 0.],-1.83984375,-0.3046875,9.578125,[0. 0. 0. 0. 0. 0. 0. 0. 0.]
1742663458541016028,1742663458,524685214,imu_link,-0.01910400390625,0.093505859375,0.011962890625,0.995361328125,[0. 0. 0. 0. 0. 0. 0. 0. 0.],-0.009765625,0.00390625,-0.01171875,[0. 0. 0. 0. 0. 0. 0. 0. 0.],-1.76171875,-0.3828125,9.58203125,[0. 0. 0. 0. 0. 0. 0. 0. 0.]
1742663458548217095,1742663458,544637312,imu_link,-0.01910400390625,0.093505859375,0.011962890625,0.995361328125,[0. 0. 0. 0. 0. 0. 0. 0. 0.],-0.009765625,0.00390625,-0.01171875,[0. 0. 0. 0. 0. 0. 0. 0. 0.],-1.76171875,-0.3828125,9.58203125,[0. 0. 0. 0. 0. 0. 0. 0. 0.]
1742663458584034465,1742663458,564739632,imu_link,-0.01934814453125,0.09320068359375,0.01190185546875,0.995361328125,[0. 0. 0. 0. 0. 0. 0. 0. 0.],-0.01171875,0.0,-0.00390625,[0. 0. 0. 0. 0. 0. 0. 0. 0.],-1.76171875,-0.34375,9.50390625,[0. 0. 0. 0. 0. 0. 0. 0. 0.]
1742663458589506965,1742663458,586186054,imu_link,-0.01934814453125,0.09320068359375,0.01190185546875,0.995361328125,[0. 0. 0. 0. 0. 0. 0. 0. 0.],-0.01171875,0.0,-0.00390625,[0. 0. 0. 0. 0. 0. 0. 0. 0.],-1.76171875,-0.34375,9.50390625,[0. 0. 0. 0. 0. 0. 0. 0. 0.]
1742663458616656907,1742663458,604754012,imu_link,-0.01934814453125,0.09320068359375,0.01190185546875,0.995361328125,[0. 0. 0. 0. 0. 0. 0. 0. 0.],-0.009765625,0.00390625,-0.013671875,[0. 0. 0. 0. 0. 0. 0. 0. 0.],-1.9140625,-0.26953125,9.7265625,[0. 0. 0. 0. 0. 0. 0. 0. 0.]
1742663458638945371,1742663458,624694461,imu_link,-0.01959228515625,0.093017578125,0.0115966796875,0.99542236328125,[0. 0. 0. 0. 0. 0. 0. 0. 0.],-0.009765625,0.00390625,-0.013671875,[0. 0. 0. 0. 0. 0. 0. 0. 0.],-1.9140625,-0.3828125,9.5,[0. 0. 0. 0. 0. 0. 0. 0. 0.]
1742663458648044470,1742663458,644696910,imu_link,-0.01959228515625,0.093017578125,0.0115966796875,0.99542236328125,[0. 0. 0. 0. 0. 0. 0. 0. 0.],-0.009765625,0.00390625,-0.013671875,[0. 0. 0. 0. 0. 0. 0. 0. 0.],-1.9140625,-0.3828125,9.5,[0. 0. 0. 0. 0. 0. 0. 0. 0.]
1742663458685473147,1742663458,664877786,imu_link,-0.01983642578125,0.09283447265625,0.0115966796875,0.99542236328125,[0. 0. 0. 0. 0. 0. 0. 0. 0.],-0.01171875,0.001953125,0.001953125,[0. 0. 0. 0. 0. 0. 0. 0. 0.],-1.9921875,-0.34375,9.65234375,[0. 0. 0. 0. 0. 0. 0. 0. 0.]
1742663458694159169,1742663458,688074202,imu_link,-0.01983642578125,0.09283447265625,0.0115966796875,0.99542236328125,[0. 0. 0. 0. 0. 0. 0. 0. 0.],-0.01171875,0.001953125,0.001953125,[0. 0. 0. 0. 0. 0. 0. 0. 0.],-1.9921875,-0.34375,9.65234375,[0. 0. 0. 0. 0. 0. 0. 0. 0.]
1742663458711913603,1742663458,704656350,imu_link,-0.01983642578125,0.09283447265625,0.0115966796875,0.99542236328125,[0. 0. 0. 0. 0. 0. 0. 0. 0.],-0.00390625,0.00390625,-0.0078125,[0. 0. 0. 0. 0. 0. 0. 0. 0.],-2.10546875,-0.23046875,9.5390625,[0. 0. 0. 0. 0. 0. 0. 0. 0.]
1742663458738979507,1742663458,724731670,imu_link,-0.01959228515625,0.09423828125,0.0113525390625,0.99530029296875,[0. 0. 0. 0. 0. 0. 0. 0. 0.],-0.00390625,0.00390625,-0.0078125,[0. 0. 0. 0. 0. 0. 0. 0. 0.],-2.03125,-0.34375,9.5390625,[0. 0. 0. 0. 0. 0. 0. 0. 0.]
1742663458748134383,1742663458,744664675,imu_link,-0.01959228515625,0.09423828125,0.0113525390625,0.99530029296875,[0. 0. 0. 0. 0. 0. 0. 0. 0.],-0.00390625,0.00390625,-0.0078125,[0. 0. 0. 0. 0. 0. 0. 0. 0.],-2.03125,-0.34375,9.5390625,[0. 0. 0. 0. 0. 0. 0. 0. 0.]
1742663458784112107,1742663458,764743847,imu_link,-0.01947021484375,0.0948486328125,0.01129150390625,0.9952392578125,[0. 0. 0. 0. 0. 0. 0. 0. 0.],0.0,0.001953125,0.0,[0. 0. 0. 0. 0. 0. 0. 0. 0.],-1.9921875,-0.3828125,9.578125,[0. 0. 0. 0. 0. 0. 0. 0. 0.]
1742663458793397076,1742663458,791399081,imu_link,-0.01947021484375,0.0948486328125,0.01129150390625,0.9952392578125,[0. 0. 0. 0. 0. 0. 0. 0. 0.],0.0,0.001953125,0.0,[0. 0. 0. 0. 0. 0. 0. 0. 0.],-1.9921875,-0.3046875,9.609375,[0. 0. 0. 0. 0. 0. 0. 0. 0.]
1742663458811768885,1742663458,804655448,imu_link,-0.01947021484375,0.0948486328125,0.01129150390625,0.9952392578125,[0. 0. 0. 0. 0. 0. 0. 0. 0.],0.00390625,0.005859375,-0.0078125,[0. 0. 0. 0. 0. 0. 0. 0. 0.],-1.9921875,-0.3046875,9.609375,[0. 0. 0. 0. 0. 0. 0. 0. 0.]
1742663458838994827,1742663458,824733583,imu_link,-0.0194091796875,0.095458984375,0.01116943359375,0.99517822265625,[0. 0. 0. 0. 0. 0. 0. 0. 0.],0.00390625,0.005859375,-0.0078125,[0. 0. 0. 0. 0. 0. 0. 0. 0.],-1.9140625,-0.3046875,9.50390625,[0. 0. 0. 0. 0. 0. 0. 0. 0.]
1742663458847396717,1742663458,844637699,imu_link,-0.0194091796875,0.095458984375,0.01116943359375,0.99517822265625,[0. 0. 0. 0. 0. 0. 0. 0. 0.],0.00390625,0.005859375,-0.0078125,[0. 0. 0. 0. 0. 0. 0. 0. 0.],-1.9140625,-0.3046875,9.50390625,[0. 0. 0. 0. 0. 0. 0. 0. 0.]
1742663458868211301,1742663458,864739223,imu_link,-0.0194091796875,0.095458984375,0.01116943359375,0.99517822265625,[0. 0. 0. 0. 0. 0. 0. 0. 0.],-0.001953125,0.00390625,0.0,[0. 0. 0. 0. 0. 0. 0. 0. 0.],-1.76171875,-0.3828125,9.58203125,[0. 0. 0. 0. 0. 0. 0. 0. 0.]
1742663458899758754,1742663458,884644801,imu_link,-0.01934814453125,0.09600830078125,0.01104736328125,0.9951171875,[0. 0. 0. 0. 0. 0. 0. 0. 0.],-0.001953125,0.00390625,0.0,[0. 0. 0. 0. 0. 0. 0. 0. 0.],-1.83984375,-0.3046875,9.65234375,[0. 0. 0. 0. 0. 0. 0. 0. 0.]
1742663458911759761,1742663458,904631361,imu_link,-0.01934814453125,0.09600830078125,0.01104736328125,0.9951171875,[0. 0. 0. 0. 0. 0. 0. 0. 0.],-0.00390625,0.0078125,-0.009765625,[0. 0. 0. 0. 0. 0. 0. 0. 0.],-1.83984375,-0.3046875,9.65234375,[0. 0. 0. 0. 0. 0. 0. 0. 0.]
1742663458938153827,1742663458,924712922,imu_link,-0.0194091796875,0.09649658203125,0.0108642578125,0.99505615234375,[0. 0. 0. 0. 0. 0. 0. 0. 0.],-0.00390625,0.0078125,-0.009765625,[0. 0. 0. 0. 0. 0. 0. 0. 0.],-1.9140625,-0.3046875,9.50390625,[0. 0. 0. 0. 0. 0. 0. 0. 0.]
1742663458951829160,1742663458,944653667,imu_link,-0.0194091796875,0.09649658203125,0.0108642578125,0.99505615234375,[0. 0. 0. 0. 0. 0. 0. 0. 0.],-0.00390625,0.0078125,-0.009765625,[0. 0. 0. 0. 0. 0. 0. 0. 0.],-2.03125,-0.3046875,9.6484375,[0. 0. 0. 0. 0. 0. 0. 0. 0.]
1742663458971965203,1742663458,964736784,imu_link,-0.0194091796875,0.09649658203125,0.0108642578125,0.99505615234375,[0. 0. 0. 0. 0. 0. 0. 0. 0.],-0.005859375,0.00390625,-0.0078125,[0. 0. 0. 0. 0. 0. 0. 0. 0.],-2.03125,-0.3046875,9.6484375,[0. 0. 0. 0. 0. 0. 0. 0. 0.]
1742663458999915613,1742663458,984677399,imu_link,-0.01947021484375,0.096923828125,0.01068115234375,0.99505615234375,[0. 0. 0. 0. 0. 0. 0. 0. 0.],-0.005859375,0.00390625,-0.0078125,[0. 0. 0. 0. 0. 0. 0. 0. 0.],-2.10546875,-0.3046875,9.578125,[0. 0. 0. 0. 0. 0. 0. 0. 0.]
1742663459016482428,1742663459,4954739,imu_link,-0.01947021484375,0.096923828125,0.01068115234375,0.99505615234375,[0. 0. 0. 0. 0. 0. 0. 0. 0.],-0.00390625,0.00390625,-0.0078125,[0. 0. 0. 0. 0. 0. 0. 0. 0.],-2.10546875,-0.34375,9.54296875,[0. 0. 0. 0. 0. 0. 0. 0. 0.]
1742663459036916658,1742663459,24654797,imu_link,-0.01947021484375,0.09722900390625,0.010498046875,0.9949951171875,[0. 0. 0. 0. 0. 0. 0. 0. 0.],-0.00390625,0.00390625,-0.0078125,[0. 0. 0. 0. 0. 0. 0. 0. 0.],-2.10546875,-0.34375,9.54296875,[0. 0. 0. 0. 0. 0. 0. 0. 0.]
1742663459047957547,1742663459,44620172,imu_link,-0.01947021484375,0.09722900390625,0.010498046875,0.9949951171875,[0. 0. 0. 0. 0. 0. 0. 0. 0.],-0.00390625,0.00390625,-0.0078125,[0. 0. 0. 0. 0. 0. 0. 0. 0.],-2.03125,-0.3828125,9.5390625,[0. 0. 0. 0. 0. 0. 0. 0. 0.]
1742663459086923512,1742663459,64720381,imu_link,-0.01947021484375,0.09759521484375,0.01025390625,0.9949951171875,[0. 0. 0. 0. 0. 0. 0. 0. 0.],-0.00390625,0.00390625,-0.009765625,[0. 0. 0. 0. 0. 0. 0. 0. 0.],-1.9921875,-0.3828125,9.61328125,[0. 0. 0. 0. 0. 0. 0. 0. 0.]
1742663459091583951,1742663459,89511104,imu_link,-0.01947021484375,0.09759521484375,0.01025390625,0.9949951171875,[0. 0. 0. 0. 0. 0. 0. 0. 0.],-0.00390625,0.00390625,-0.009765625,[0. 0. 0. 0. 0. 0. 0. 0. 0.],-1.9921875,-0.3828125,9.61328125,[0. 0. 0. 0. 0. 0. 0. 0. 0.]
1742663459116770731,1742663459,104780614,imu_link,-0.01947021484375,0.09759521484375,0.01025390625,0.9949951171875,[0. 0. 0. 0. 0. 0. 0. 0. 0.],0.005859375,0.00390625,0.001953125,[0. 0. 0. 0. 0. 0. 0. 0. 0.],-1.83984375,-0.421875,9.5390625,[0. 0. 0. 0. 0. 0. 0. 0. 0.]
1742663459142136050,1742663459,124666581,imu_link,-0.0194091796875,0.097900390625,0.01031494140625,0.99493408203125,[0. 0. 0. 0. 0. 0. 0. 0. 0.],0.005859375,0.00390625,0.001953125,[0. 0. 0. 0. 0. 0. 0. 0. 0.],-1.87890625,-0.26953125,9.609375,[0. 0. 0. 0. 0. 0. 0. 0. 0.]
1742663459148910280,1742663459,145367386,imu_link,-0.0194091796875,0.097900390625,0.01031494140625,0.99493408203125,[0. 0. 0. 0. 0. 0. 0. 0. 0.],0.005859375,0.00390625,0.001953125,[0. 0. 0. 0. 0. 0. 0. 0. 0.],-1.87890625,-0.26953125,9.609375,[0. 0. 0. 0. 0. 0. 0. 0. 0.]
1742663459186373940,1742663459,164735665,imu_link,-0.0194091796875,0.09820556640625,0.01031494140625,0.99493408203125,[0. 0. 0. 0. 0. 0. 0. 0. 0.],0.0078125,0.00390625,0.001953125,[0. 0. 0. 0. 0. 0. 0. 0. 0.],-1.9140625,-0.3046875,9.609375,[0. 0. 0. 0. 0. 0. 0. 0. 0.]
1742663459191028175,1742663459,188946975,imu_link,-0.0194091796875,0.09820556640625,0.01031494140625,0.99493408203125,[0. 0. 0. 0. 0. 0. 0. 0. 0.],0.0078125,0.00390625,0.001953125,[0. 0. 0. 0. 0. 0. 0. 0. 0.],-1.9140625,-0.3046875,9.609375,[0. 0. 0. 0. 0. 0. 0. 0. 0.]
1742663459215976898,1742663459,204735804,imu_link,-0.0194091796875,0.09820556640625,0.01031494140625,0.99493408203125,[0. 0. 0. 0. 0. 0. 0. 0. 0.],0.00390625,0.005859375,-0.001953125,[0. 0. 0. 0. 0. 0. 0. 0. 0.],-1.953125,-0.34375,9.5,[0. 0. 0. 0. 0. 0. 0. 0. 0.]
1742663459238670198,1742663459,224645123,imu_link,-0.0194091796875,0.0985107421875,0.01031494140625,0.994873046875,[0. 0. 0. 0. 0. 0. 0. 0. 0.],0.00390625,0.005859375,-0.001953125,[0. 0. 0. 0. 0. 0. 0. 0. 0.],-1.9921875,-0.3828125,9.65234375,[0. 0. 0. 0. 0. 0. 0. 0. 0.]
1742663459248114373,1742663459,244642127,imu_link,-0.0194091796875,0.0985107421875,0.01031494140625,0.994873046875,[0. 0. 0. 0. 0. 0. 0. 0. 0.],0.00390625,0.005859375,-0.001953125,[0. 0. 0. 0. 0. 0. 0. 0. 0.],-1.9921875,-0.3828125,9.65234375,[0. 0. 0. 0. 0. 0. 0. 0. 0.]
1742663459284337820,1742663459,264725818,imu_link,-0.0194091796875,0.09881591796875,0.01025390625,0.994873046875,[0. 0. 0. 0. 0. 0. 0. 0. 0.],0.00390625,0.005859375,-0.00390625,[0. 0. 0. 0. 0. 0. 0. 0. 0.],-2.03125,-0.34375,9.61328125,[0. 0. 0. 0. 0. 0. 0. 0. 0.]
1742663459289695949,1742663459,286912708,imu_link,-0.0194091796875,0.09881591796875,0.01025390625,0.994873046875,[0. 0. 0. 0. 0. 0. 0. 0. 0.],0.00390625,0.005859375,-0.00390625,[0. 0. 0. 0. 0. 0. 0. 0. 0.],-2.03125,-0.34375,9.61328125,[0. 0. 0. 0. 0. 0. 0. 0. 0.]
1742663459311227945,1742663459,304731494,imu_link,-0.0194091796875,0.09881591796875,0.01025390625,0.994873046875,[0. 0. 0. 0. 0. 0. 0. 0. 0.],0.0,0.005859375,-0.00390625,[0. 0. 0. 0. 0. 0. 0. 0. 0.],-2.03125,-0.34375,9.5,[0. 0. 0. 0. 0. 0. 0. 0. 0.]
1742663459338541184,1742663459,324699202,imu_link,-0.0194091796875,0.09906005859375,0.01019287109375,0.99481201171875,[0. 0. 0. 0. 0. 0. 0. 0. 0.],0.0,0.005859375,-0.00390625,[0. 0. 0. 0. 0. 0. 0. 0. 0.],-1.9140625,-0.34375,9.578125,[0. 0. 0. 0. 0. 0. 0. 0. 0.]
1742663459347950303,1742663459,344627021,imu_link,-0.0194091796875,0.09906005859375,0.01019287109375,0.99481201171875,[0. 0. 0. 0. 0. 0. 0. 0. 0.],0.0,0.005859375,-0.00390625,[0. 0. 0. 0. 0. 0. 0. 0. 0.],-1.9140625,-0.34375,9.578125,[0. 0. 0. 0. 0. 0. 0. 0. 0.]
1742663459384074601,1742663459,364717008,imu_link,-0.0194091796875,0.099365234375,0.0101318359375,0.99481201171875,[0. 0. 0. 0. 0. 0. 0. 0. 0.],0.0,0.005859375,-0.001953125,[0. 0. 0. 0. 0. 0. 0. 0. 0.],-1.953125,-0.34375,9.578125,[0. 0. 0. 0. 0. 0. 0. 0. 0.]
1742663459393410442,1742663459,391000129,imu_link,-0.0194091796875,0.099365234375,0.0101318359375,0.99481201171875,[0. 0. 0. 0. 0. 0. 0. 0. 0.],0.0,0.005859375,-0.001953125,[0. 0. 0. 0. 0. 0. 0. 0. 0.],-1.953125,-0.34375,9.4609375,[0. 0. 0. 0. 0. 0. 0. 0. 0.]
1742663459411327840,1742663459,404729907,imu_link,-0.0194091796875,0.099365234375,0.0101318359375,0.99481201171875,[0. 0. 0. 0. 0. 0. 0. 0. 0.],-0.005859375,0.00390625,-0.005859375,[0. 0. 0. 0. 0. 0. 0. 0. 0.],-1.953125,-0.34375,9.4609375,[0. 0. 0. 0. 0. 0. 0. 0. 0.]
1742663459439161416,1742663459,424835930,imu_link,-0.01947021484375,0.099609375,0.010009765625,0.99481201171875,[0. 0. 0. 0. 0. 0. 0. 0. 0.],-0.005859375,0.00390625,-0.005859375,[0. 0. 0. 0. 0. 0. 0. 0. 0.],-2.03125,-0.3828125,9.6875,[0. 0. 0. 0. 0. 0. 0. 0. 0.]
1742663459447386471,1742663459,444639730,imu_link,-0.01947021484375,0.099609375,0.010009765625,0.99481201171875,[0. 0. 0. 0. 0. 0. 0. 0. 0.],-0.005859375,0.00390625,-0.005859375,[0. 0. 0. 0. 0. 0. 0. 0. 0.],-2.03125,-0.3828125,9.6875,[0. 0. 0. 0. 0. 0. 0. 0. 0.]
1742663459468186629,1742663459,464727791,imu_link,-0.01947021484375,0.099609375,0.010009765625,0.99481201171875,[0. 0. 0. 0. 0. 0. 0. 0. 0.],-0.00390625,0.00390625,-0.00390625,[0. 0. 0. 0. 0. 0. 0. 0. 0.],-2.14453125,-0.34375,9.5390625,[0. 0. 0. 0. 0. 0. 0. 0. 0.]
1742663459499297875,1742663459,484710833,imu_link,-0.01947021484375,0.099853515625,0.00994873046875,0.9947509765625,[0. 0. 0. 0. 0. 0. 0. 0. 0.],-0.00390625,0.00390625,-0.00390625,[0. 0. 0. 0. 0. 0. 0. 0. 0.],-2.03125,-0.34375,9.5,[0. 0. 0. 0. 0. 0. 0. 0. 0.]
1742663459511314956,1742663459,504733745,imu_link,-0.01947021484375,0.099853515625,0.00994873046875,0.9947509765625,[0. 0. 0. 0. 0. 0. 0. 0. 0.],0.0,0.0,-0.00390625,[0. 0. 0. 0. 0. 0. 0. 0. 0.],-2.03125,-0.34375,9.5,[0. 0. 0. 0. 0. 0. 0. 0. 0.]
1742663459538961771,1742663459,524678027,imu_link,-0.0194091796875,0.10003662109375,0.00982666015625,0.9947509765625,[0. 0. 0. 0. 0. 0. 0. 0. 0.],0.0,0.0,-0.00390625,[0. 0. 0. 0. 0. 0. 0. 0. 0.],-1.9921875,-0.34375,9.61328125,[0. 0. 0. 0. 0. 0. 0. 0. 0.]
1742663459551119316,1742663459,544630550,imu_link,-0.0194091796875,0.10003662109375,0.00982666015625,0.9947509765625,[0. 0. 0. 0. 0. 0. 0. 0. 0.],0.0,0.0,-0.00390625,[0. 0. 0. 0. 0. 0. 0. 0. 0.],-1.9140625,-0.34375,9.578125,[0. 0. 0. 0. 0. 0. 0. 0. 0.]
1742663459568105800,1742663459,564705870,imu_link,-0.0194091796875,0.10003662109375,0.00982666015625,0.9947509765625,[0. 0. 0. 0. 0. 0. 0. 0. 0.],0.0,0.0,0.0,[0. 0. 0. 0. 0. 0. 0. 0. 0.],-1.9140625,-0.34375,9.578125,[0. 0. 0. 0. 0. 0. 0. 0. 0.]
1742663459598902155,1742663459,584688097,imu_link,-0.01934814453125,0.1002197265625,0.00982666015625,0.9947509765625,[0. 0. 0. 0. 0. 0. 0. 0. 0.],0.0,0.0,0.0,[0. 0. 0. 0. 0. 0. 0. 0. 0.],-1.9140625,-0.34375,9.5,[0. 0. 0. 0. 0. 0. 0. 0. 0.]
1742663459616219698,1742663459,604921696,imu_link,-0.01934814453125,0.1002197265625,0.00982666015625,0.9947509765625,[0. 0. 0. 0. 0. 0. 0. 0. 0.],-0.005859375,0.001953125,-0.00390625,[0. 0. 0. 0. 0. 0. 0. 0. 0.],-1.953125,-0.3046875,9.6484375,[0. 0. 0. 0. 0. 0. 0. 0. 0.]
1742663459637361451,1742663459,624671995,imu_link,-0.0194091796875,0.1004638671875,0.00970458984375,0.99468994140625,[0. 0. 0. 0. 0. 0. 0. 0. 0.],-0.005859375,0.001953125,-0.00390625,[0. 0. 0. 0. 0. 0. 0. 0. 0.],-1.953125,-0.3046875,9.6484375,[0. 0. 0. 0. 0. 0. 0. 0. 0.]
1742663459648028319,1742663459,644645500,imu_link,-0.0194091796875,0.1004638671875,0.00970458984375,0.99468994140625,[0. 0. 0. 0. 0. 0. 0. 0. 0.],-0.005859375,0.001953125,-0.00390625,[0. 0. 0. 0. 0. 0. 0. 0. 0.],-2.03125,-0.3046875,9.50390625,[0. 0. 0. 0. 0. 0. 0. 0. 0.]
1742663459685925722,1742663459,664715301,imu_link,-0.0194091796875,0.10064697265625,0.0096435546875,0.99468994140625,[0. 0. 0. 0. 0. 0. 0. 0. 0.],-0.0078125,0.00390625,-0.001953125,[0. 0. 0. 0. 0. 0. 0. 0. 0.],-2.0703125,-0.34375,9.58203125,[0. 0. 0. 0. 0. 0. 0. 0. 0.]
1742663459690556438,1742663459,688510535,imu_link,-0.0194091796875,0.10064697265625,0.0096435546875,0.99468994140625,[0. 0. 0. 0. 0. 0. 0. 0. 0.],-0.0078125,0.00390625,-0.001953125,[0. 0. 0. 0. 0. 0. 0. 0. 0.],-2.0703125,-0.34375,9.58203125,[0. 0. 0. 0. 0. 0. 0. 0. 0.]
1742663459716591242,1742663459,704757274,imu_link,-0.0194091796875,0.10064697265625,0.0096435546875,0.99468994140625,[0. 0. 0. 0. 0. 0. 0. 0. 0.],-0.0078125,0.00390625,-0.0078125,[0. 0. 0. 0. 0. 0. 0. 0. 0.],-2.0703125,-0.34375,9.609375,[0. 0. 0. 0. 0. 0. 0. 0. 0.]
1742663459741566392,1742663459,724659963,imu_link,-0.0194091796875,0.10089111328125,0.009521484375,0.99468994140625,[0. 0. 0. 0. 0. 0. 0. 0. 0.],-0.0078125,0.00390625,-0.0078125,[0. 0. 0. 0. 0. 0. 0. 0. 0.],-2.03125,-0.3046875,9.54296875,[0. 0. 0. 0. 0. 0. 0. 0. 0.]
1742663459748096843,1742663459,744652561,imu_link,-0.0194091796875,0.10089111328125,0.009521484375,0.99468994140625,[0. 0. 0. 0. 0. 0. 0. 0. 0.],-0.0078125,0.00390625,-0.0078125,[0. 0. 0. 0. 0. 0. 0. 0. 0.],-2.03125,-0.3046875,9.54296875,[0. 0. 0. 0. 0. 0. 0. 0. 0.]
1742663459787420052,1742663459,764739492,imu_link,-0.01947021484375,0.10107421875,0.00933837890625,0.99462890625,[0. 0. 0. 0. 0. 0. 0. 0. 0.],-0.0078125,0.00390625,-0.0078125,[0. 0. 0. 0. 0. 0. 0. 0. 0.],-1.9140625,-0.34375,9.578125,[0. 0. 0. 0. 0. 0. 0. 0. 0.]
1742663459791720284,1742663459,789993958,imu_link,-0.01947021484375,0.10107421875,0.00933837890625,0.99462890625,[0. 0. 0. 0. 0. 0. 0. 0. 0.],-0.0078125,0.00390625,-0.0078125,[0. 0. 0. 0. 0. 0. 0. 0. 0.],-1.9140625,-0.34375,9.578125,[0. 0. 0. 0. 0. 0. 0. 0. 0.]
1742663459816479932,1742663459,805019300,imu_link,-0.01947021484375,0.10107421875,0.00933837890625,0.99462890625,[0. 0. 0. 0. 0. 0. 0. 0. 0.],-0.005859375,0.001953125,-0.001953125,[0. 0. 0. 0. 0. 0. 0. 0. 0.],-1.83984375,-0.34375,9.54296875,[0. 0. 0. 0. 0. 0. 0. 0. 0.]
1742663459839034750,1742663459,824654950,imu_link,-0.0194091796875,0.10125732421875,0.00921630859375,0.99462890625,[0. 0. 0. 0. 0. 0. 0. 0. 0.],-0.005859375,0.001953125,-0.001953125,[0. 0. 0. 0. 0. 0. 0. 0. 0.],-1.9140625,-0.34375,9.5390625,[0. 0. 0. 0. 0. 0. 0. 0. 0.]
1742663459847984236,1742663459,844634862,imu_link,-0.0194091796875,0.10125732421875,0.00921630859375,0.99462890625,[0. 0. 0. 0. 0. 0. 0. 0. 0.],-0.005859375,0.001953125,-0.001953125,[0. 0. 0. 0. 0. 0. 0. 0. 0.],-1.9140625,-0.34375,9.5390625,[0. 0. 0. 0. 0. 0. 0. 0. 0.]
1742663459885832768,1742663459,864722312,imu_link,-0.0194091796875,0.1014404296875,0.00909423828125,0.99462890625,[0. 0. 0. 0. 0. 0. 0. 0. 0.],-0.005859375,0.00390625,-0.0078125,[0. 0. 0. 0. 0. 0. 0. 0. 0.],-2.03125,-0.34375,9.61328125,[0. 0. 0. 0. 0. 0. 0. 0. 0.]
1742663459890290984,1742663459,888502490,imu_link,-0.0194091796875,0.1014404296875,0.00909423828125,0.99462890625,[0. 0. 0. 0. 0. 0. 0. 0. 0.],-0.005859375,0.00390625,-0.0078125,[0. 0. 0. 0. 0. 0. 0. 0. 0.],-2.03125,-0.34375,9.61328125,[0. 0. 0. 0. 0. 0. 0. 0. 0.]
1742663459911386403,1742663459,904889674,imu_link,-0.0194091796875,0.1014404296875,0.00909423828125,0.99462890625,[0. 0. 0. 0. 0. 0. 0. 0. 0.],0.0,0.001953125,-0.001953125,[0. 0. 0. 0. 0. 0. 0. 0. 0.],-2.10546875,-0.3828125,9.58203125,[0. 0. 0. 0. 0. 0. 0. 0. 0.]
1742663459938823717,1742663459,924845253,imu_link,-0.019287109375,0.10162353515625,0.00897216796875,0.99456787109375,[0. 0. 0. 0. 0. 0. 0. 0. 0.],0.0,0.001953125,-0.001953125,[0. 0. 0. 0. 0. 0. 0. 0. 0.],-2.22265625,-0.34375,9.58203125,[0. 0. 0. 0. 0. 0. 0. 0. 0.]
1742663459948200947,1742663459,944770572,imu_link,-0.019287109375,0.10162353515625,0.00897216796875,0.99456787109375,[0. 0. 0. 0. 0. 0. 0. 0. 0.],0.0,0.001953125,-0.001953125,[0. 0. 0. 0. 0. 0. 0. 0. 0.],-2.22265625,-0.34375,9.58203125,[0. 0. 0. 0. 0. 0. 0. 0. 0.]
1742663459990061765,1742663459,964760799,imu_link,-0.01922607421875,0.1016845703125,0.0087890625,0.99456787109375,[0. 0. 0. 0. 0. 0. 0. 0. 0.],-0.001953125,0.001953125,-0.01171875,[0. 0. 0. 0. 0. 0. 0. 0. 0.],-2.14453125,-0.26953125,9.5,[0. 0. 0. 0. 0. 0. 0. 0. 0.]
1742663459995148966,1742663459,991665553,imu_link,-0.01922607421875,0.1016845703125,0.0087890625,0.99456787109375,[0. 0. 0. 0. 0. 0. 0. 0. 0.],-0.001953125,0.001953125,-0.01171875,[0. 0. 0. 0. 0. 0. 0. 0. 0.],-1.9921875,-0.34375,9.578125,[0. 0. 0. 0. 0. 0. 0. 0. 0.]
1742663460011213926,1742663460,4708030,imu_link,-0.01922607421875,0.1016845703125,0.0087890625,0.99456787109375,[0. 0. 0. 0. 0. 0. 0. 0. 0.],-0.00390625,-0.001953125,-0.001953125,[0. 0. 0. 0. 0. 0. 0. 0. 0.],-1.9921875,-0.34375,9.578125,[0. 0. 0. 0. 0. 0. 0. 0. 0.]
1742663460038743573,1742663460,24668034,imu_link,-0.0191650390625,0.101806640625,0.00872802734375,0.99456787109375,[0. 0. 0. 0. 0. 0. 0. 0. 0.],-0.00390625,-0.001953125,-0.001953125,[0. 0. 0. 0. 0. 0. 0. 0. 0.],-1.87890625,-0.3828125,9.54296875,[0. 0. 0. 0. 0. 0. 0. 0. 0.]
1742663460047716930,1742663460,44844022,imu_link,-0.0191650390625,0.101806640625,0.00872802734375,0.99456787109375,[0. 0. 0. 0. 0. 0. 0. 0. 0.],-0.00390625,-0.001953125,-0.001953125,[0. 0. 0. 0. 0. 0. 0. 0. 0.],-1.87890625,-0.3828125,9.54296875,[0. 0. 0. 0. 0. 0. 0. 0. 0.]
1742663460068100233,1742663460,64672525,imu_link,-0.0191650390625,0.101806640625,0.00872802734375,0.99456787109375,[0. 0. 0. 0. 0. 0. 0. 0. 0.],-0.001953125,0.001953125,-0.009765625,[0. 0. 0. 0. 0. 0. 0. 0. 0.],-1.87890625,-0.3046875,9.578125,[0. 0. 0. 0. 0. 0. 0. 0. 0.]
1742663460098581401,1742663460,84705104,imu_link,-0.0191650390625,0.10198974609375,0.008544921875,0.99456787109375,[0. 0. 0. 0. 0. 0. 0. 0. 0.],-0.001953125,0.001953125,-0.009765625,[0. 0. 0. 0. 0. 0. 0. 0. 0.],-1.87890625,-0.34375,9.58203125,[0. 0. 0. 0. 0. 0. 0. 0. 0.]
1742663460111344913,1742663460,104739609,imu_link,-0.0191650390625,0.10198974609375,0.008544921875,0.99456787109375,[0. 0. 0. 0. 0. 0. 0. 0. 0.],-0.005859375,0.001953125,-0.00390625,[0. 0. 0. 0. 0. 0. 0. 0. 0.],-1.87890625,-0.34375,9.58203125,[0. 0. 0. 0. 0. 0. 0. 0. 0.]
1742663460137647126,1742663460,124639169,imu_link,-0.01922607421875,0.10205078125,0.00836181640625,0.99456787109375,[0. 0. 0. 0. 0. 0. 0. 0. 0.],-0.005859375,0.001953125,-0.00390625,[0. 0. 0. 0. 0. 0. 0. 0. 0.],-1.9140625,-0.3828125,9.5,[0. 0. 0. 0. 0. 0. 0. 0. 0.]
1742663460155748452,1742663460,144913305,imu_link,-0.01922607421875,0.10205078125,0.00836181640625,0.99456787109375,[0. 0. 0. 0. 0. 0. 0. 0. 0.],-0.005859375,0.001953125,-0.00390625,[0. 0. 0. 0. 0. 0. 0. 0. 0.],-2.0703125,-0.3046875,9.65234375,[0. 0. 0. 0. 0. 0. 0. 0. 0.]
1742663460168370296,1742663460,164851846,imu_link,-0.01922607421875,0.10205078125,0.00836181640625,0.99456787109375,[0. 0. 0. 0. 0. 0. 0. 0. 0.],-0.005859375,0.0,-0.017578125,[0. 0. 0. 0. 0. 0. 0. 0. 0.],-2.0703125,-0.3046875,9.65234375,[0. 0. 0. 0. 0. 0. 0. 0. 0.]
1742663460198680832,1742663460,184714424,imu_link,-0.01922607421875,0.10211181640625,0.008056640625,0.99456787109375,[0. 0. 0. 0. 0. 0. 0. 0. 0.],-0.005859375,0.0,-0.017578125,[0. 0. 0. 0. 0. 0. 0. 0. 0.],-2.10546875,-0.3046875,9.5390625,[0. 0. 0. 0. 0. 0. 0. 0. 0.]
1742663460215097239,1742663460,204643039,imu_link,-0.01922607421875,0.10211181640625,0.008056640625,0.99456787109375,[0. 0. 0. 0. 0. 0. 0. 0. 0.],-0.00390625,0.001953125,-0.005859375,[0. 0. 0. 0. 0. 0. 0. 0. 0.],-2.0703125,-0.421875,9.578125,[0. 0. 0. 0. 0. 0. 0. 0. 0.]
1742663460237027220,1742663460,224638822,imu_link,-0.019287109375,0.1021728515625,0.0078125,0.99456787109375,[0. 0. 0. 0. 0. 0. 0. 0. 0.],-0.00390625,0.001953125,-0.005859375,[0. 0. 0. 0. 0. 0. 0. 0. 0.],-2.0703125,-0.421875,9.578125,[0. 0. 0. 0. 0. 0. 0. 0. 0.]
1742663460248287406,1742663460,244755197,imu_link,-0.019287109375,0.1021728515625,0.0078125,0.99456787109375,[0. 0. 0. 0. 0. 0. 0. 0. 0.],-0.00390625,0.001953125,-0.005859375,[0. 0. 0. 0. 0. 0. 0. 0. 0.],-2.0703125,-0.3828125,9.58203125,[0. 0. 0. 0. 0. 0. 0. 0. 0.]
1742663460283681088,1742663460,264686646,imu_link,-0.01934814453125,0.10223388671875,0.0076904296875,0.99456787109375,[0. 0. 0. 0. 0. 0. 0. 0. 0.],-0.005859375,0.00390625,-0.005859375,[0. 0. 0. 0. 0. 0. 0. 0. 0.],-2.03125,-0.3046875,9.58203125,[0. 0. 0. 0. 0. 0. 0. 0. 0.]
1742663460289063162,1742663460,286334680,imu_link,-0.01934814453125,0.10223388671875,0.0076904296875,0.99456787109375,[0. 0. 0. 0. 0. 0. 0. 0. 0.],-0.005859375,0.00390625,-0.005859375,[0. 0. 0. 0. 0. 0. 0. 0. 0.],-2.03125,-0.3046875,9.58203125,[0. 0. 0. 0. 0. 0. 0. 0. 0.]
1742663460316252733,1742663460,304716378,imu_link,-0.01934814453125,0.10223388671875,0.0076904296875,0.99456787109375,[0. 0. 0. 0. 0. 0. 0. 0. 0.],0.0,0.00390625,-0.013671875,[0. 0. 0. 0. 0. 0. 0. 0. 0.],-1.9921875,-0.3828125,9.5390625,[0. 0. 0. 0. 0. 0. 0. 0. 0.]
1742663460340689860,1742663460,324650456,imu_link,-0.0194091796875,0.102294921875,0.00738525390625,0.9945068359375,[0. 0. 0. 0. 0. 0. 0. 0. 0.],0.0,0.00390625,-0.013671875,[0. 0. 0. 0. 0. 0. 0. 0. 0.],-1.953125,-0.4609375,9.61328125,[0. 0. 0. 0. 0. 0. 0. 0. 0.]
1742663460348294244,1742663460,344871851,imu_link,-0.0194091796875,0.102294921875,0.00738525390625,0.9945068359375,[0. 0. 0. 0. 0. 0. 0. 0. 0.],0.0,0.00390625,-0.013671875,[0. 0. 0. 0. 0. 0. 0. 0. 0.],-1.953125,-0.4609375,9.61328125,[0. 0. 0. 0. 0. 0. 0. 0. 0.]
1742663460385533809,1742663460,364713207,imu_link,-0.0194091796875,0.1024169921875,0.00750732421875,0.9945068359375,[0. 0. 0. 0. 0. 0. 0. 0. 0.],0.005859375,0.005859375,0.0078125,[0. 0. 0. 0. 0. 0. 0. 0. 0.],-2.03125,-0.3828125,9.578125,[0. 0. 0. 0. 0. 0. 0. 0. 0.]
1742663460390193267,1742663460,388211864,imu_link,-0.0194091796875,0.1024169921875,0.00750732421875,0.9945068359375,[0. 0. 0. 0. 0. 0. 0. 0. 0.],0.005859375,0.005859375,0.0078125,[0. 0. 0. 0. 0. 0. 0. 0. 0.],-2.03125,-0.3828125,9.578125,[0. 0. 0. 0. 0. 0. 0. 0. 0.]
1742663460416047922,1742663460,404724420,imu_link,-0.0194091796875,0.1024169921875,0.00750732421875,0.9945068359375,[0. 0. 0. 0. 0. 0. 0. 0. 0.],0.005859375,0.001953125,-0.01953125,[0. 0. 0. 0. 0. 0. 0. 0. 0.],-2.10546875,-0.26953125,9.54296875,[0. 0. 0. 0. 0. 0. 0. 0. 0.]
1742663460438089477,1742663460,424822351,imu_link,-0.0194091796875,0.1025390625,0.00714111328125,0.9945068359375,[0. 0. 0. 0. 0. 0. 0. 0. 0.],0.005859375,0.001953125,-0.01953125,[0. 0. 0. 0. 0. 0. 0. 0. 0.],-1.953125,-0.421875,9.609375,[0. 0. 0. 0. 0. 0. 0. 0. 0.]
1742663460448245379,1742663460,444818689,imu_link,-0.0194091796875,0.1025390625,0.00714111328125,0.9945068359375,[0. 0. 0. 0. 0. 0. 0. 0. 0.],0.005859375,0.001953125,-0.01953125,[0. 0. 0. 0. 0. 0. 0. 0. 0.],-1.953125,-0.421875,9.609375,[0. 0. 0. 0. 0. 0. 0. 0. 0.]
1742663460484273861,1742663460,464738230,imu_link,-0.01934814453125,0.10260009765625,0.00726318359375,0.9945068359375,[0. 0. 0. 0. 0. 0. 0. 0. 0.],0.00390625,0.001953125,0.009765625,[0. 0. 0. 0. 0. 0. 0. 0. 0.],-1.953125,-0.34375,9.5390625,[0. 0. 0. 0. 0. 0. 0. 0. 0.]
1742663460488903355,1742663460,486906175,imu_link,-0.01934814453125,0.10260009765625,0.00726318359375,0.9945068359375,[0. 0. 0. 0. 0. 0. 0. 0. 0.],0.00390625,0.001953125,0.009765625,[0. 0. 0. 0. 0. 0. 0. 0. 0.],-1.953125,-0.34375,9.5390625,[0. 0. 0. 0. 0. 0. 0. 0. 0.]
1742663460515384478,1742663460,504728462,imu_link,-0.01934814453125,0.10260009765625,0.00726318359375,0.9945068359375,[0. 0. 0. 0. 0. 0. 0. 0. 0.],0.00390625,0.0,-0.013671875,[0. 0. 0. 0. 0. 0. 0. 0. 0.],-1.9921875,-0.3046875,9.609375,[0. 0. 0. 0. 0. 0. 0. 0. 0.]
1742663460537903110,1742663460,524694596,imu_link,-0.01934814453125,0.1026611328125,0.007080078125,0.9945068359375,[0. 0. 0. 0. 0. 0. 0. 0. 0.],0.00390625,0.0,-0.013671875,[0. 0. 0. 0. 0. 0. 0. 0. 0.],-1.9921875,-0.3828125,9.61328125,[0. 0. 0. 0. 0. 0. 0. 0. 0.]
1742663460549290020,1742663460,544741267,imu_link,-0.01934814453125,0.1026611328125,0.007080078125,0.9945068359375,[0. 0. 0. 0. 0. 0. 0. 0. 0.],0.00390625,0.0,-0.013671875,[0. 0. 0. 0. 0. 0. 0. 0. 0.],-1.9921875,-0.3828125,9.61328125,[0. 0. 0. 0. 0. 0. 0. 0. 0.]
1742663460567548587,1742663460,564694086,imu_link,-0.01934814453125,0.1026611328125,0.007080078125,0.9945068359375,[0. 0. 0. 0. 0. 0. 0. 0. 0.],0.00390625,0.0,0.0,[0. 0. 0. 0. 0. 0. 0. 0. 0.],-1.9921875,-0.3828125,9.578125,[0. 0. 0. 0. 0. 0. 0. 0. 0.]
1742663460597892217,1742663460,584697869,imu_link,-0.0194091796875,0.10272216796875,0.00701904296875,0.9945068359375,[0. 0. 0. 0. 0. 0. 0. 0. 0.],0.00390625,0.0,0.0,[0. 0. 0. 0. 0. 0. 0. 0. 0.],-2.03125,-0.3046875,9.50390625,[0. 0. 0. 0. 0. 0. 0. 0. 0.]
1742663460610627636,1742663460,604824208,imu_link,-0.0194091796875,0.10272216796875,0.00701904296875,0.9945068359375,[0. 0. 0. 0. 0. 0. 0. 0. 0.],0.0,0.0,-0.01171875,[0. 0. 0. 0. 0. 0. 0. 0. 0.],-2.03125,-0.3046875,9.50390625,[0. 0. 0. 0. 0. 0. 0. 0. 0.]
1742663460637925541,1742663460,624702267,imu_link,-0.01953125,0.102783203125,0.0068359375,0.9945068359375,[0. 0. 0. 0. 0. 0. 0. 0. 0.],0.0,0.0,-0.01171875,[0. 0. 0. 0. 0. 0. 0. 0. 0.],-2.0703125,-0.23046875,9.578125,[0. 0. 0. 0. 0. 0. 0. 0. 0.]
1742663460647562661,1742663460,644741068,imu_link,-0.01953125,0.102783203125,0.0068359375,0.9945068359375,[0. 0. 0. 0. 0. 0. 0. 0. 0.],0.0,0.0,-0.01171875,[0. 0. 0. 0. 0. 0. 0. 0. 0.],-2.0703125,-0.23046875,9.578125,[0. 0. 0. 0. 0. 0. 0. 0. 0.]
1742663460667493777,1742663460,664702017,imu_link,-0.01953125,0.102783203125,0.0068359375,0.9945068359375,[0. 0. 0. 0. 0. 0. 0. 0. 0.],0.00390625,-0.001953125,-0.005859375,[0. 0. 0. 0. 0. 0. 0. 0. 0.],-1.953125,-0.421875,9.50390625,[0. 0. 0. 0. 0. 0. 0. 0. 0.]
1742663460697272791,1742663460,684707448,imu_link,-0.0196533203125,0.102783203125,0.006591796875,0.9945068359375,[0. 0. 0. 0. 0. 0. 0. 0. 0.],0.00390625,-0.001953125,-0.005859375,[0. 0. 0. 0. 0. 0. 0. 0. 0.],-1.9140625,-0.421875,9.6484375,[0. 0. 0. 0. 0. 0. 0. 0. 0.]
1742663460710544158,1742663460,704683471,imu_link,-0.0196533203125,0.102783203125,0.006591796875,0.9945068359375,[0. 0. 0. 0. 0. 0. 0. 0. 0.],0.001953125,0.00390625,-0.001953125,[0. 0. 0. 0. 0. 0. 0. 0. 0.],-1.9140625,-0.421875,9.6484375,[0. 0. 0. 0. 0. 0. 0. 0. 0.]
1742663460737637600,1742663460,724677364,imu_link,-0.0196533203125,0.10284423828125,0.00665283203125,0.9945068359375,[0. 0. 0. 0. 0. 0. 0. 0. 0.],0.001953125,0.00390625,-0.001953125,[0. 0. 0. 0. 0. 0. 0. 0. 0.],-2.03125,-0.34375,9.61328125,[0. 0. 0. 0. 0. 0. 0. 0. 0.]
1742663460756954526,1742663460,744793814,imu_link,-0.0196533203125,0.10284423828125,0.00665283203125,0.9945068359375,[0. 0. 0. 0. 0. 0. 0. 0. 0.],-0.001953125,0.001953125,-0.001953125,[0. 0. 0. 0. 0. 0. 0. 0. 0.],-1.9921875,-0.3828125,9.4609375,[0. 0. 0. 0. 0. 0. 0. 0. 0.]
1742663460767359966,1742663460,764642262,imu_link,-0.0196533203125,0.10284423828125,0.00665283203125,0.9945068359375,[0. 0. 0. 0. 0. 0. 0. 0. 0.],-0.001953125,0.001953125,-0.001953125,[0. 0. 0. 0. 0. 0. 0. 0. 0.],-1.9921875,-0.3828125,9.4609375,[0. 0. 0. 0. 0. 0. 0. 0. 0.]
1742663460797279815,1742663460,784709045,imu_link,-0.01971435546875,0.10284423828125,0.00653076171875,0.9945068359375,[0. 0. 0. 0. 0. 0. 0. 0. 0.],-0.001953125,0.001953125,-0.001953125,[0. 0. 0. 0. 0. 0. 0. 0. 0.],-2.03125,-0.34375,9.61328125,[0. 0. 0. 0. 0. 0. 0. 0. 0.]
1742663460814797525,1742663460,804634901,imu_link,-0.01971435546875,0.10284423828125,0.00653076171875,0.9945068359375,[0. 0. 0. 0. 0. 0. 0. 0. 0.],-0.00390625,0.0,-0.001953125,[0. 0. 0. 0. 0. 0. 0. 0. 0.],-2.10546875,-0.3046875,9.578125,[0. 0. 0. 0. 0. 0. 0. 0. 0.]
1742663460837085952,1742663460,824677017,imu_link,-0.019775390625,0.10284423828125,0.00653076171875,0.9945068359375,[0. 0. 0. 0. 0. 0. 0. 0. 0.],-0.00390625,0.0,-0.001953125,[0. 0. 0. 0. 0. 0. 0. 0. 0.],-2.10546875,-0.3046875,9.578125,[0. 0. 0. 0. 0. 0. 0. 0. 0.]
1742663460847771191,1742663460,844958487,imu_link,-0.019775390625,0.10284423828125,0.00653076171875,0.9945068359375,[0. 0. 0. 0. 0. 0. 0. 0. 0.],-0.00390625,0.0,-0.001953125,[0. 0. 0. 0. 0. 0. 0. 0. 0.],-2.0703125,-0.3828125,9.54296875,[0. 0. 0. 0. 0. 0. 0. 0. 0.]
1742663460881767549,1742663460,864707768,imu_link,-0.01983642578125,0.10284423828125,0.00640869140625,0.9945068359375,[0. 0. 0. 0. 0. 0. 0. 0. 0.],-0.005859375,0.001953125,-0.00390625,[0. 0. 0. 0. 0. 0. 0. 0. 0.],-2.0703125,-0.3828125,9.54296875,[0. 0. 0. 0. 0. 0. 0. 0. 0.]
1742663460887468217,1742663460,884627142,imu_link,-0.01983642578125,0.10284423828125,0.00640869140625,0.9945068359375,[0. 0. 0. 0. 0. 0. 0. 0. 0.],-0.005859375,0.001953125,-0.00390625,[0. 0. 0. 0. 0. 0. 0. 0. 0.],-2.03125,-0.421875,9.58203125,[0. 0. 0. 0. 0. 0. 0. 0. 0.]
1742663460915453368,1742663460,904728666,imu_link,-0.01983642578125,0.10284423828125,0.00640869140625,0.9945068359375,[0. 0. 0. 0. 0. 0. 0. 0. 0.],0.0,-0.00390625,0.0,[0. 0. 0. 0. 0. 0. 0. 0. 0.],-1.9921875,-0.34375,9.578125,[0. 0. 0. 0. 0. 0. 0. 0. 0.]
1742663460939855087,1742663460,924959468,imu_link,-0.019775390625,0.10284423828125,0.00640869140625,0.9945068359375,[0. 0. 0. 0. 0. 0. 0. 0. 0.],0.0,-0.00390625,0.0,[0. 0. 0. 0. 0. 0. 0. 0. 0.],-1.953125,-0.3828125,9.4609375,[0. 0. 0. 0. 0. 0. 0. 0. 0.]
1742663460947420767,1742663460,944682379,imu_link,-0.019775390625,0.10284423828125,0.00640869140625,0.9945068359375,[0. 0. 0. 0. 0. 0. 0. 0. 0.],0.0,-0.00390625,0.0,[0. 0. 0. 0. 0. 0. 0. 0. 0.],-1.953125,-0.3828125,9.4609375,[0. 0. 0. 0. 0. 0. 0. 0. 0.]
1742663460980962215,1742663460,964714217,imu_link,-0.019775390625,0.10284423828125,0.0064697265625,0.9945068359375,[0. 0. 0. 0. 0. 0. 0. 0. 0.],-0.00390625,-0.00390625,0.0,[0. 0. 0. 0. 0. 0. 0. 0. 0.],-1.953125,-0.34375,9.65234375,[0. 0. 0. 0. 0. 0. 0. 0. 0.]
1742663460987493277,1742663460,984687203,imu_link,-0.019775390625,0.10284423828125,0.0064697265625,0.9945068359375,[0. 0. 0. 0. 0. 0. 0. 0. 0.],-0.00390625,-0.00390625,0.0,[0. 0. 0. 0. 0. 0. 0. 0. 0.],-1.953125,-0.34375,9.65234375,[0. 0. 0. 0. 0. 0. 0. 0. 0.]
1742663461015388557,1742663461,4710819,imu_link,-0.019775390625,0.10284423828125,0.0064697265625,0.9945068359375,[0. 0. 0. 0. 0. 0. 0. 0. 0.],-0.00390625,-0.00390625,0.0,[0. 0. 0. 0. 0. 0. 0. 0. 0.],-2.03125,-0.34375,9.578125,[0. 0. 0. 0. 0. 0. 0. 0. 0.]
1742663461037414927,1742663461,24623397,imu_link,-0.01983642578125,0.10284423828125,0.0064697265625,0.9945068359375,[0. 0. 0. 0. 0. 0. 0. 0. 0.],-0.00390625,-0.00390625,0.0,[0. 0. 0. 0. 0. 0. 0. 0. 0.],-2.0703125,-0.34375,9.58203125,[0. 0. 0. 0. 0. 0. 0. 0. 0.]
1742663461047447957,1742663461,44681180,imu_link,-0.01983642578125,0.10284423828125,0.0064697265625,0.9945068359375,[0. 0. 0. 0. 0. 0. 0. 0. 0.],-0.00390625,-0.00390625,0.0,[0. 0. 0. 0. 0. 0. 0. 0. 0.],-2.0703125,-0.34375,9.58203125,[0. 0. 0. 0. 0. 0. 0. 0. 0.]
1742663461081561001,1742663461,64700147,imu_link,-0.0198974609375,0.10284423828125,0.00634765625,0.9945068359375,[0. 0. 0. 0. 0. 0. 0. 0. 0.],-0.005859375,-0.00390625,-0.00390625,[0. 0. 0. 0. 0. 0. 0. 0. 0.],-2.03125,-0.3046875,9.54296875,[0. 0. 0. 0. 0. 0. 0. 0. 0.]
1742663461087503689,1742663461,84673966,imu_link,-0.0198974609375,0.10284423828125,0.00634765625,0.9945068359375,[0. 0. 0. 0. 0. 0. 0. 0. 0.],-0.005859375,-0.00390625,-0.00390625,[0. 0. 0. 0. 0. 0. 0. 0. 0.],-2.03125,-0.3046875,9.54296875,[0. 0. 0. 0. 0. 0. 0. 0. 0.]
1742663461115779120,1742663461,104841565,imu_link,-0.0198974609375,0.10284423828125,0.00634765625,0.9945068359375,[0. 0. 0. 0. 0. 0. 0. 0. 0.],-0.0078125,-0.001953125,-0.00390625,[0. 0. 0. 0. 0. 0. 0. 0. 0.],-1.953125,-0.34375,9.578125,[0. 0. 0. 0. 0. 0. 0. 0. 0.]
1742663461137264838,1742663461,124674327,imu_link,-0.01995849609375,0.102783203125,0.0062255859375,0.9945068359375,[0. 0. 0. 0. 0. 0. 0. 0. 0.],-0.0078125,-0.001953125,-0.00390625,[0. 0. 0. 0. 0. 0. 0. 0. 0.],-1.953125,-0.4609375,9.578125,[0. 0. 0. 0. 0. 0. 0. 0. 0.]
1742663461146880551,1742663461,144661017,imu_link,-0.01995849609375,0.102783203125,0.0062255859375,0.9945068359375,[0. 0. 0. 0. 0. 0. 0. 0. 0.],-0.0078125,-0.001953125,-0.00390625,[0. 0. 0. 0. 0. 0. 0. 0. 0.],-1.953125,-0.4609375,9.578125,[0. 0. 0. 0. 0. 0. 0. 0. 0.]
1742663461180268071,1742663461,164651540,imu_link,-0.0198974609375,0.10284423828125,0.00628662109375,0.9945068359375,[0. 0. 0. 0. 0. 0. 0. 0. 0.],-0.005859375,0.001953125,0.00390625,[0. 0. 0. 0. 0. 0. 0. 0. 0.],-1.9921875,-0.3828125,9.578125,[0. 0. 0. 0. 0. 0. 0. 0. 0.]
1742663461190500362,1742663461,184747397,imu_link,-0.0198974609375,0.10284423828125,0.00628662109375,0.9945068359375,[0. 0. 0. 0. 0. 0. 0. 0. 0.],-0.005859375,0.001953125,0.00390625,[0. 0. 0. 0. 0. 0. 0. 0. 0.],-2.03125,-0.34375,9.61328125,[0. 0. 0. 0. 0. 0. 0. 0. 0.]
1742663461210368514,1742663461,204638975,imu_link,-0.0198974609375,0.10284423828125,0.00628662109375,0.9945068359375,[0. 0. 0. 0. 0. 0. 0. 0. 0.],-0.0078125,0.001953125,-0.001953125,[0. 0. 0. 0. 0. 0. 0. 0. 0.],-2.03125,-0.34375,9.61328125,[0. 0. 0. 0. 0. 0. 0. 0. 0.]
1742663461236578523,1742663461,224671684,imu_link,-0.01983642578125,0.102783203125,0.0062255859375,0.9945068359375,[0. 0. 0. 0. 0. 0. 0. 0. 0.],-0.0078125,0.001953125,-0.001953125,[0. 0. 0. 0. 0. 0. 0. 0. 0.],-2.03125,-0.3828125,9.5,[0. 0. 0. 0. 0. 0. 0. 0. 0.]
1742663461246905759,1742663461,244650966,imu_link,-0.01983642578125,0.102783203125,0.0062255859375,0.9945068359375,[0. 0. 0. 0. 0. 0. 0. 0. 0.],-0.0078125,0.001953125,-0.001953125,[0. 0. 0. 0. 0. 0. 0. 0. 0.],-2.03125,-0.3828125,9.5,[0. 0. 0. 0. 0. 0. 0. 0. 0.]
1742663461279603164,1742663461,264661989,imu_link,-0.01983642578125,0.102783203125,0.0062255859375,0.9945068359375,[0. 0. 0. 0. 0. 0. 0. 0. 0.],-0.00390625,-0.001953125,0.0,[0. 0. 0. 0. 0. 0. 0. 0. 0.],-2.03125,-0.3046875,9.609375,[0. 0. 0. 0. 0. 0. 0. 0. 0.]
1742663461288694465,1742663461,286911324,imu_link,-0.01983642578125,0.102783203125,0.0062255859375,0.9945068359375,[0. 0. 0. 0. 0. 0. 0. 0. 0.],-0.00390625,-0.001953125,0.0,[0. 0. 0. 0. 0. 0. 0. 0. 0.],-2.03125,-0.34375,9.5390625,[0. 0. 0. 0. 0. 0. 0. 0. 0.]
1742663461310953133,1742663461,304671221,imu_link,-0.01983642578125,0.102783203125,0.0062255859375,0.9945068359375,[0. 0. 0. 0. 0. 0. 0. 0. 0.],-0.009765625,0.0,-0.005859375,[0. 0. 0. 0. 0. 0. 0. 0. 0.],-2.03125,-0.34375,9.5390625,[0. 0. 0. 0. 0. 0. 0. 0. 0.]
1742663461337007308,1742663461,324695799,imu_link,-0.0198974609375,0.10284423828125,0.006103515625,0.9945068359375,[0. 0. 0. 0. 0. 0. 0. 0. 0.],-0.009765625,0.0,-0.005859375,[0. 0. 0. 0. 0. 0. 0. 0. 0.],-2.03125,-0.3828125,9.5390625,[0. 0. 0. 0. 0. 0. 0. 0. 0.]
1742663461356505643,1742663461,344681322,imu_link,-0.0198974609375,0.10284423828125,0.006103515625,0.9945068359375,[0. 0. 0. 0. 0. 0. 0. 0. 0.],-0.001953125,-0.001953125,0.00390625,[0. 0. 0. 0. 0. 0. 0. 0. 0.],-1.9140625,-0.421875,9.58203125,[0. 0. 0. 0. 0. 0. 0. 0. 0.]
1742663461366866138,1742663461,364706253,imu_link,-0.0198974609375,0.10284423828125,0.006103515625,0.9945068359375,[0. 0. 0. 0. 0. 0. 0. 0. 0.],-0.001953125,-0.001953125,0.00390625,[0. 0. 0. 0. 0. 0. 0. 0. 0.],-1.9140625,-0.421875,9.58203125,[0. 0. 0. 0. 0. 0. 0. 0. 0.]
1742663461398190441,1742663461,384733184,imu_link,-0.019775390625,0.102783203125,0.00616455078125,0.9945068359375,[0. 0. 0. 0. 0. 0. 0. 0. 0.],-0.001953125,-0.001953125,0.00390625,[0. 0. 0. 0. 0. 0. 0. 0. 0.],-1.953125,-0.4609375,9.578125,[0. 0. 0. 0. 0. 0. 0. 0. 0.]
1742663461412989855,1742663461,405433841,imu_link,-0.019775390625,0.102783203125,0.00616455078125,0.9945068359375,[0. 0. 0. 0. 0. 0. 0. 0. 0.],0.0,-0.00390625,0.0,[0. 0. 0. 0. 0. 0. 0. 0. 0.],-2.03125,-0.34375,9.5390625,[0. 0. 0. 0. 0. 0. 0. 0. 0.]
1742663461437093535,1742663461,424708471,imu_link,-0.01971435546875,0.10272216796875,0.00628662109375,0.9945068359375,[0. 0. 0. 0. 0. 0. 0. 0. 0.],0.0,-0.00390625,0.0,[0. 0. 0. 0. 0. 0. 0. 0. 0.],-2.03125,-0.34375,9.5390625,[0. 0. 0. 0. 0. 0. 0. 0. 0.]
1742663461455912976,1742663461,444694160,imu_link,-0.01971435546875,0.10272216796875,0.00628662109375,0.9945068359375,[0. 0. 0. 0. 0. 0. 0. 0. 0.],0.0078125,-0.005859375,0.0,[0. 0. 0. 0. 0. 0. 0. 0. 0.],-2.03125,-0.3828125,9.578125,[0. 0. 0. 0. 0. 0. 0. 0. 0.]
1742663461466964847,1742663461,464719684,imu_link,-0.01971435546875,0.10272216796875,0.00628662109375,0.9945068359375,[0. 0. 0. 0. 0. 0. 0. 0. 0.],0.0078125,-0.005859375,0.0,[0. 0. 0. 0. 0. 0. 0. 0. 0.],-2.03125,-0.3828125,9.578125,[0. 0. 0. 0. 0. 0. 0. 0. 0.]
1742663461505780163,1742663461,484733466,imu_link,-0.01959228515625,0.10260009765625,0.00628662109375,0.9945068359375,[0. 0. 0. 0. 0. 0. 0. 0. 0.],0.0078125,-0.005859375,0.0,[0. 0. 0. 0. 0. 0. 0. 0. 0.],-2.0703125,-0.34375,9.609375,[0. 0. 0. 0. 0. 0. 0. 0. 0.]
1742663461509716356,1742663461,507389544,imu_link,-0.01959228515625,0.10260009765625,0.00628662109375,0.9945068359375,[0. 0. 0. 0. 0. 0. 0. 0. 0.],0.0078125,0.001953125,0.001953125,[0. 0. 0. 0. 0. 0. 0. 0. 0.],-2.10546875,-0.3046875,9.5,[0. 0. 0. 0. 0. 0. 0. 0. 0.]
1742663461541706645,1742663461,524695956,imu_link,-0.01953125,0.10260009765625,0.00634765625,0.9945068359375,[0. 0. 0. 0. 0. 0. 0. 0. 0.],0.0078125,0.001953125,0.001953125,[0. 0. 0. 0. 0. 0. 0. 0. 0.],-2.0703125,-0.3046875,9.578125,[0. 0. 0. 0. 0. 0. 0. 0. 0.]
1742663461546799716,1742663461,544771184,imu_link,-0.01953125,0.10260009765625,0.00634765625,0.9945068359375,[0. 0. 0. 0. 0. 0. 0. 0. 0.],0.0078125,0.001953125,0.001953125,[0. 0. 0. 0. 0. 0. 0. 0. 0.],-2.0703125,-0.3046875,9.578125,[0. 0. 0. 0. 0. 0. 0. 0. 0.]
1742663461582071304,1742663461,564704984,imu_link,-0.01953125,0.10260009765625,0.00628662109375,0.9945068359375,[0. 0. 0. 0. 0. 0. 0. 0. 0.],0.0078125,0.001953125,-0.001953125,[0. 0. 0. 0. 0. 0. 0. 0. 0.],-1.9921875,-0.421875,9.609375,[0. 0. 0. 0. 0. 0. 0. 0. 0.]
1742663461586747669,1742663461,584952139,imu_link,-0.01953125,0.10260009765625,0.00628662109375,0.9945068359375,[0. 0. 0. 0. 0. 0. 0. 0. 0.],0.0078125,0.001953125,-0.001953125,[0. 0. 0. 0. 0. 0. 0. 0. 0.],-1.9921875,-0.421875,9.609375,[0. 0. 0. 0. 0. 0. 0. 0. 0.]
1742663461615757882,1742663461,604720734,imu_link,-0.01953125,0.10260009765625,0.00628662109375,0.9945068359375,[0. 0. 0. 0. 0. 0. 0. 0. 0.],0.009765625,-0.001953125,0.005859375,[0. 0. 0. 0. 0. 0. 0. 0. 0.],-1.9140625,-0.4609375,9.4609375,[0. 0. 0. 0. 0. 0. 0. 0. 0.]
1742663461637625955,1742663461,624676776,imu_link,-0.01947021484375,0.10260009765625,0.0064697265625,0.9945068359375,[0. 0. 0. 0. 0. 0. 0. 0. 0.],0.009765625,-0.001953125,0.005859375,[0. 0. 0. 0. 0. 0. 0. 0. 0.],-1.9140625,-0.3828125,9.65234375,[0. 0. 0. 0. 0. 0. 0. 0. 0.]
1742663461646644460,1742663461,644699984,imu_link,-0.01947021484375,0.10260009765625,0.0064697265625,0.9945068359375,[0. 0. 0. 0. 0. 0. 0. 0. 0.],0.009765625,-0.001953125,0.005859375,[0. 0. 0. 0. 0. 0. 0. 0. 0.],-1.9140625,-0.3828125,9.65234375,[0. 0. 0. 0. 0. 0. 0. 0. 0.]
1742663461682483867,1742663461,664705396,imu_link,-0.0194091796875,0.1026611328125,0.00653076171875,0.9945068359375,[0. 0. 0. 0. 0. 0. 0. 0. 0.],0.013671875,-0.001953125,0.00390625,[0. 0. 0. 0. 0. 0. 0. 0. 0.],-1.953125,-0.3046875,9.58203125,[0. 0. 0. 0. 0. 0. 0. 0. 0.]
1742663461687186065,1742663461,685418257,imu_link,-0.0194091796875,0.1026611328125,0.00653076171875,0.9945068359375,[0. 0. 0. 0. 0. 0. 0. 0. 0.],0.013671875,-0.001953125,0.00390625,[0. 0. 0. 0. 0. 0. 0. 0. 0.],-1.953125,-0.3046875,9.58203125,[0. 0. 0. 0. 0. 0. 0. 0. 0.]
1742663461715580904,1742663461,704645942,imu_link,-0.0194091796875,0.1026611328125,0.00653076171875,0.9945068359375,[0. 0. 0. 0. 0. 0. 0. 0. 0.],0.01171875,-0.001953125,-0.001953125,[0. 0. 0. 0. 0. 0. 0. 0. 0.],-1.9921875,-0.3046875,9.50390625,[0. 0. 0. 0. 0. 0. 0. 0. 0.]
1742663461737457440,1742663461,724632909,imu_link,-0.0194091796875,0.1026611328125,0.00653076171875,0.9945068359375,[0. 0. 0. 0. 0. 0. 0. 0. 0.],0.01171875,-0.001953125,-0.001953125,[0. 0. 0. 0. 0. 0. 0. 0. 0.],-1.9921875,-0.3046875,9.609375,[0. 0. 0. 0. 0. 0. 0. 0. 0.]
1742663461746516223,1742663461,744653173,imu_link,-0.0194091796875,0.1026611328125,0.00653076171875,0.9945068359375,[0. 0. 0. 0. 0. 0. 0. 0. 0.],0.01171875,-0.001953125,-0.001953125,[0. 0. 0. 0. 0. 0. 0. 0. 0.],-1.9921875,-0.3046875,9.609375,[0. 0. 0. 0. 0. 0. 0. 0. 0.]
1742663461779315091,1742663461,764658141,imu_link,-0.01934814453125,0.10260009765625,0.00640869140625,0.9945068359375,[0. 0. 0. 0. 0. 0. 0. 0. 0.],0.009765625,0.0,-0.00390625,[0. 0. 0. 0. 0. 0. 0. 0. 0.],-2.0703125,-0.3828125,9.54296875,[0. 0. 0. 0. 0. 0. 0. 0. 0.]
1742663461792198900,1742663461,785228983,imu_link,-0.01934814453125,0.10260009765625,0.00640869140625,0.9945068359375,[0. 0. 0. 0. 0. 0. 0. 0. 0.],0.009765625,0.0,-0.00390625,[0. 0. 0. 0. 0. 0. 0. 0. 0.],-2.0703125,-0.421875,9.5390625,[0. 0. 0. 0. 0. 0. 0. 0. 0.]
1742663461810916785,1742663461,804655835,imu_link,-0.01934814453125,0.10260009765625,0.00640869140625,0.9945068359375,[0. 0. 0. 0. 0. 0. 0. 0. 0.],0.005859375,0.00390625,0.00390625,[0. 0. 0. 0. 0. 0. 0. 0. 0.],-2.0703125,-0.421875,9.5390625,[0. 0. 0. 0. 0. 0. 0. 0. 0.]
1742663461836456271,1742663461,824758248,imu_link,-0.019287109375,0.1026611328125,0.00640869140625,0.9945068359375,[0. 0. 0. 0. 0. 0. 0. 0. 0.],0.005859375,0.00390625,0.00390625,[0. 0. 0. 0. 0. 0. 0. 0. 0.],-2.03125,-0.421875,9.58203125,[0. 0. 0. 0. 0. 0. 0. 0. 0.]
1742663461846404708,1742663461,844629048,imu_link,-0.019287109375,0.1026611328125,0.00640869140625,0.9945068359375,[0. 0. 0. 0. 0. 0. 0. 0. 0.],0.005859375,0.00390625,0.00390625,[0. 0. 0. 0. 0. 0. 0. 0. 0.],-2.03125,-0.421875,9.58203125,[0. 0. 0. 0. 0. 0. 0. 0. 0.]
1742663461885223598,1742663461,864716405,imu_link,-0.0191650390625,0.10272216796875,0.00653076171875,0.9945068359375,[0. 0. 0. 0. 0. 0. 0. 0. 0.],0.00390625,0.001953125,0.00390625,[0. 0. 0. 0. 0. 0. 0. 0. 0.],-1.9921875,-0.3046875,9.54296875,[0. 0. 0. 0. 0. 0. 0. 0. 0.]
1742663461889374793,1742663461,886886369,imu_link,-0.0191650390625,0.10272216796875,0.00653076171875,0.9945068359375,[0. 0. 0. 0. 0. 0. 0. 0. 0.],0.00390625,0.001953125,0.00390625,[0. 0. 0. 0. 0. 0. 0. 0. 0.],-1.953125,-0.3046875,9.54296875,[0. 0. 0. 0. 0. 0. 0. 0. 0.]
1742663461910070395,1742663461,904643951,imu_link,-0.0191650390625,0.10272216796875,0.00653076171875,0.9945068359375,[0. 0. 0. 0. 0. 0. 0. 0. 0.],-0.001953125,-0.001953125,0.0,[0. 0. 0. 0. 0. 0. 0. 0. 0.],-1.953125,-0.3046875,9.54296875,[0. 0. 0. 0. 0. 0. 0. 0. 0.]
1742663461937040576,1742663461,924923235,imu_link,-0.0191650390625,0.10272216796875,0.00653076171875,0.9945068359375,[0. 0. 0. 0. 0. 0. 0. 0. 0.],-0.001953125,-0.001953125,0.0,[0. 0. 0. 0. 0. 0. 0. 0. 0.],-1.953125,-0.34375,9.578125,[0. 0. 0. 0. 0. 0. 0. 0. 0.]
1742663461955458366,1742663461,944633552,imu_link,-0.0191650390625,0.10272216796875,0.00653076171875,0.9945068359375,[0. 0. 0. 0. 0. 0. 0. 0. 0.],0.0,0.001953125,0.001953125,[0. 0. 0. 0. 0. 0. 0. 0. 0.],-2.03125,-0.3828125,9.65234375,[0. 0. 0. 0. 0. 0. 0. 0. 0.]
1742663461966501884,1742663461,964703502,imu_link,-0.0191650390625,0.10272216796875,0.00653076171875,0.9945068359375,[0. 0. 0. 0. 0. 0. 0. 0. 0.],0.0,0.001953125,0.001953125,[0. 0. 0. 0. 0. 0. 0. 0. 0.],-2.03125,-0.3828125,9.65234375,[0. 0. 0. 0. 0. 0. 0. 0. 0.]
1742663461986380092,1742663461,984663136,imu_link,-0.01910400390625,0.10272216796875,0.00665283203125,0.9945068359375,[0. 0. 0. 0. 0. 0. 0. 0. 0.],0.0,0.001953125,0.001953125,[0. 0. 0. 0. 0. 0. 0. 0. 0.],-2.0703125,-0.3828125,9.50390625,[0. 0. 0. 0. 0. 0. 0. 0. 0.]
1742663462015486935,1742663462,4703437,imu_link,-0.01910400390625,0.10272216796875,0.00665283203125,0.9945068359375,[0. 0. 0. 0. 0. 0. 0. 0. 0.],0.0,-0.00390625,0.001953125,[0. 0. 0. 0. 0. 0. 0. 0. 0.],-2.03125,-0.34375,9.5390625,[0. 0. 0. 0. 0. 0. 0. 0. 0.]
1742663462036836338,1742663462,24728849,imu_link,-0.01898193359375,0.1026611328125,0.00665283203125,0.9945068359375,[0. 0. 0. 0. 0. 0. 0. 0. 0.],0.0,-0.00390625,0.001953125,[0. 0. 0. 0. 0. 0. 0. 0. 0.],-2.03125,-0.34375,9.5390625,[0. 0. 0. 0. 0. 0. 0. 0. 0.]
1742663462055460740,1742663462,44652298,imu_link,-0.01898193359375,0.1026611328125,0.00665283203125,0.9945068359375,[0. 0. 0. 0. 0. 0. 0. 0. 0.],-0.001953125,-0.005859375,0.009765625,[0. 0. 0. 0. 0. 0. 0. 0. 0.],-1.953125,-0.3828125,9.61328125,[0. 0. 0. 0. 0. 0. 0. 0. 0.]
1742663462066494740,1742663462,64659524,imu_link,-0.01898193359375,0.1026611328125,0.00665283203125,0.9945068359375,[0. 0. 0. 0. 0. 0. 0. 0. 0.],-0.001953125,-0.005859375,0.009765625,[0. 0. 0. 0. 0. 0. 0. 0. 0.],-1.953125,-0.3828125,9.61328125,[0. 0. 0. 0. 0. 0. 0. 0. 0.]
1742663462086446282,1742663462,84653103,imu_link,-0.01885986328125,0.10260009765625,0.0068359375,0.9945068359375,[0. 0. 0. 0. 0. 0. 0. 0. 0.],-0.001953125,-0.005859375,0.009765625,[0. 0. 0. 0. 0. 0. 0. 0. 0.],-1.9140625,-0.34375,9.5390625,[0. 0. 0. 0. 0. 0. 0. 0. 0.]
1742663462115452476,1742663462,104767034,imu_link,-0.01885986328125,0.10260009765625,0.0068359375,0.9945068359375,[0. 0. 0. 0. 0. 0. 0. 0. 0.],-0.001953125,-0.00390625,0.001953125,[0. 0. 0. 0. 0. 0. 0. 0. 0.],-1.87890625,-0.34375,9.58203125,[0. 0. 0. 0. 0. 0. 0. 0. 0.]
1742663462141075741,1742663462,125005485,imu_link,-0.018798828125,0.1025390625,0.00689697265625,0.9945068359375,[0. 0. 0. 0. 0. 0. 0. 0. 0.],-0.001953125,-0.00390625,0.001953125,[0. 0. 0. 0. 0. 0. 0. 0. 0.],-1.953125,-0.34375,9.578125,[0. 0. 0. 0. 0. 0. 0. 0. 0.]
1742663462146342220,1742663462,144626968,imu_link,-0.018798828125,0.1025390625,0.00689697265625,0.9945068359375,[0. 0. 0. 0. 0. 0. 0. 0. 0.],-0.001953125,-0.00390625,0.001953125,[0. 0. 0. 0. 0. 0. 0. 0. 0.],-1.953125,-0.34375,9.578125,[0. 0. 0. 0. 0. 0. 0. 0. 0.]
1742663462179989816,1742663462,164669380,imu_link,-0.0186767578125,0.10247802734375,0.00701904296875,0.9945068359375,[0. 0. 0. 0. 0. 0. 0. 0. 0.],0.0,-0.00390625,0.005859375,[0. 0. 0. 0. 0. 0. 0. 0. 0.],-2.03125,-0.34375,9.5,[0. 0. 0. 0. 0. 0. 0. 0. 0.]
1742663462186375618,1742663462,184640440,imu_link,-0.0186767578125,0.10247802734375,0.00701904296875,0.9945068359375,[0. 0. 0. 0. 0. 0. 0. 0. 0.],0.0,-0.00390625,0.005859375,[0. 0. 0. 0. 0. 0. 0. 0. 0.],-2.03125,-0.34375,9.5,[0. 0. 0. 0. 0. 0. 0. 0. 0.]
1742663462215145441,1742663462,204696223,imu_link,-0.0186767578125,0.10247802734375,0.00701904296875,0.9945068359375,[0. 0. 0. 0. 0. 0. 0. 0. 0.],-0.00390625,-0.00390625,-0.001953125,[0. 0. 0. 0. 0. 0. 0. 0. 0.],-2.0703125,-0.34375,9.609375,[0. 0. 0. 0. 0. 0. 0. 0. 0.]
1742663462237327645,1742663462,224896303,imu_link,-0.0185546875,0.10235595703125,0.00701904296875,0.99456787109375,[0. 0. 0. 0. 0. 0. 0. 0. 0.],-0.00390625,-0.00390625,-0.001953125,[0. 0. 0. 0. 0. 0. 0. 0. 0.],-2.0703125,-0.3046875,9.578125,[0. 0. 0. 0. 0. 0. 0. 0. 0.]
1742663462246640634,1742663462,244690658,imu_link,-0.0185546875,0.10235595703125,0.00701904296875,0.99456787109375,[0. 0. 0. 0. 0. 0. 0. 0. 0.],-0.00390625,-0.00390625,-0.001953125,[0. 0. 0. 0. 0. 0. 0. 0. 0.],-2.0703125,-0.3046875,9.578125,[0. 0. 0. 0. 0. 0. 0. 0. 0.]
1742663462279670429,1742663462,264693625,imu_link,-0.0184326171875,0.10235595703125,0.007080078125,0.99456787109375,[0. 0. 0. 0. 0. 0. 0. 0. 0.],0.001953125,0.0,0.0078125,[0. 0. 0. 0. 0. 0. 0. 0. 0.],-1.9921875,-0.3828125,9.5390625,[0. 0. 0. 0. 0. 0. 0. 0. 0.]
1742663462286460234,1742663462,284699722,imu_link,-0.0184326171875,0.10235595703125,0.007080078125,0.99456787109375,[0. 0. 0. 0. 0. 0. 0. 0. 0.],0.001953125,0.0,0.0078125,[0. 0. 0. 0. 0. 0. 0. 0. 0.],-1.9921875,-0.3828125,9.5390625,[0. 0. 0. 0. 0. 0. 0. 0. 0.]
1742663462315189501,1742663462,304661134,imu_link,-0.0184326171875,0.10235595703125,0.007080078125,0.99456787109375,[0. 0. 0. 0. 0. 0. 0. 0. 0.],0.00390625,0.001953125,-0.001953125,[0. 0. 0. 0. 0. 0. 0. 0. 0.],-1.9921875,-0.3046875,9.609375,[0. 0. 0. 0. 0. 0. 0. 0. 0.]
1742663462337080814,1742663462,324737509,imu_link,-0.018310546875,0.10235595703125,0.007080078125,0.99456787109375,[0. 0. 0. 0. 0. 0. 0. 0. 0.],0.00390625,0.001953125,-0.001953125,[0. 0. 0. 0. 0. 0. 0. 0. 0.],-1.953125,-0.3046875,9.54296875,[0. 0. 0. 0. 0. 0. 0. 0. 0.]
1742663462346431266,1742663462,344654402,imu_link,-0.018310546875,0.10235595703125,0.007080078125,0.99456787109375,[0. 0. 0. 0. 0. 0. 0. 0. 0.],0.00390625,0.001953125,-0.001953125,[0. 0. 0. 0. 0. 0. 0. 0. 0.],-1.953125,-0.3046875,9.54296875,[0. 0. 0. 0. 0. 0. 0. 0. 0.]
1742663462379586211,1742663462,364697926,imu_link,-0.01824951171875,0.10235595703125,0.00701904296875,0.99456787109375,[0. 0. 0. 0. 0. 0. 0. 0. 0.],-0.001953125,-0.001953125,-0.00390625,[0. 0. 0. 0. 0. 0. 0. 0. 0.],-1.9140625,-0.34375,9.5390625,[0. 0. 0. 0. 0. 0. 0. 0. 0.]
1742663462391088899,1742663462,384656189,imu_link,-0.01824951171875,0.10235595703125,0.00701904296875,0.99456787109375,[0. 0. 0. 0. 0. 0. 0. 0. 0.],-0.001953125,-0.001953125,-0.00390625,[0. 0. 0. 0. 0. 0. 0. 0. 0.],-1.9140625,-0.34375,9.5390625,[0. 0. 0. 0. 0. 0. 0. 0. 0.]
1742663462411207812,1742663462,404659842,imu_link,-0.01824951171875,0.10235595703125,0.00701904296875,0.99456787109375,[0. 0. 0. 0. 0. 0. 0. 0. 0.],-0.00390625,0.005859375,-0.001953125,[0. 0. 0. 0. 0. 0. 0. 0. 0.],-1.9921875,-0.3046875,9.6484375,[0. 0. 0. 0. 0. 0. 0. 0. 0.]
1742663462437952287,1742663462,424932589,imu_link,-0.01824951171875,0.1024169921875,0.0069580078125,0.99456787109375,[0. 0. 0. 0. 0. 0. 0. 0. 0.],-0.00390625,0.005859375,-0.001953125,[0. 0. 0. 0. 0. 0. 0. 0. 0.],-2.0703125,-0.34375,9.54296875,[0. 0. 0. 0. 0. 0. 0. 0. 0.]
1742663462454304786,1742663462,444633795,imu_link,-0.01824951171875,0.1024169921875,0.0069580078125,0.99456787109375,[0. 0. 0. 0. 0. 0. 0. 0. 0.],-0.00390625,0.005859375,-0.001953125,[0. 0. 0. 0. 0. 0. 0. 0. 0.],-2.0703125,-0.34375,9.54296875,[0. 0. 0. 0. 0. 0. 0. 0. 0.]
1742663462466497682,1742663462,464712337,imu_link,-0.01824951171875,0.1024169921875,0.0069580078125,0.99456787109375,[0. 0. 0. 0. 0. 0. 0. 0. 0.],-0.001953125,-0.001953125,-0.0078125,[0. 0. 0. 0. 0. 0. 0. 0. 0.],-2.03125,-0.34375,9.578125,[0. 0. 0. 0. 0. 0. 0. 0. 0.]
1742663462491218311,1742663462,484666249,imu_link,-0.01824951171875,0.10235595703125,0.00677490234375,0.99456787109375,[0. 0. 0. 0. 0. 0. 0. 0. 0.],-0.001953125,-0.001953125,-0.0078125,[0. 0. 0. 0. 0. 0. 0. 0. 0.],-1.9921875,-0.3828125,9.578125,[0. 0. 0. 0. 0. 0. 0. 0. 0.]
1742663462510758276,1742663462,504679939,imu_link,-0.01824951171875,0.10235595703125,0.00677490234375,0.99456787109375,[0. 0. 0. 0. 0. 0. 0. 0. 0.],0.001953125,-0.001953125,0.00390625,[0. 0. 0. 0. 0. 0. 0. 0. 0.],-1.9921875,-0.3828125,9.578125,[0. 0. 0. 0. 0. 0. 0. 0. 0.]
1742663462530398407,1742663462,526935255,imu_link,-0.0181884765625,0.10235595703125,0.00677490234375,0.99456787109375,[0. 0. 0. 0. 0. 0. 0. 0. 0.],0.001953125,-0.001953125,0.00390625,[0. 0. 0. 0. 0. 0. 0. 0. 0.],-2.03125,-0.3046875,9.58203125,[0. 0. 0. 0. 0. 0. 0. 0. 0.]
1742663462554472032,1742663462,544655633,imu_link,-0.0181884765625,0.10235595703125,0.00677490234375,0.99456787109375,[0. 0. 0. 0. 0. 0. 0. 0. 0.],0.005859375,-0.005859375,-0.00390625,[0. 0. 0. 0. 0. 0. 0. 0. 0.],-1.9921875,-0.3828125,9.5390625,[0. 0. 0. 0. 0. 0. 0. 0. 0.]
1742663462582698999,1742663462,564697674,imu_link,-0.0181884765625,0.10223388671875,0.00665283203125,0.99456787109375,[0. 0. 0. 0. 0. 0. 0. 0. 0.],0.005859375,-0.005859375,-0.00390625,[0. 0. 0. 0. 0. 0. 0. 0. 0.],-1.9921875,-0.3828125,9.5390625,[0. 0. 0. 0. 0. 0. 0. 0. 0.]
1742663462586525395,1742663462,584837958,imu_link,-0.0181884765625,0.10223388671875,0.00665283203125,0.99456787109375,[0. 0. 0. 0. 0. 0. 0. 0. 0.],0.005859375,-0.005859375,-0.00390625,[0. 0. 0. 0. 0. 0. 0. 0. 0.],-1.953125,-0.34375,9.5390625,[0. 0. 0. 0. 0. 0. 0. 0. 0.]
1742663462614838196,1742663462,604817314,imu_link,-0.0181884765625,0.10223388671875,0.00665283203125,0.99456787109375,[0. 0. 0. 0. 0. 0. 0. 0. 0.],0.005859375,-0.00390625,0.001953125,[0. 0. 0. 0. 0. 0. 0. 0. 0.],-1.953125,-0.26953125,9.578125,[0. 0. 0. 0. 0. 0. 0. 0. 0.]
1742663462629573313,1742663462,625946789,imu_link,-0.01812744140625,0.1021728515625,0.0067138671875,0.99456787109375,[0. 0. 0. 0. 0. 0. 0. 0. 0.],0.005859375,-0.00390625,0.001953125,[0. 0. 0. 0. 0. 0. 0. 0. 0.],-1.953125,-0.26953125,9.578125,[0. 0. 0. 0. 0. 0. 0. 0. 0.]
1742663462654992465,1742663462,644708915,imu_link,-0.01812744140625,0.1021728515625,0.0067138671875,0.99456787109375,[0. 0. 0. 0. 0. 0. 0. 0. 0.],0.0078125,-0.00390625,-0.005859375,[0. 0. 0. 0. 0. 0. 0. 0. 0.],-1.953125,-0.34375,9.5,[0. 0. 0. 0. 0. 0. 0. 0. 0.]
1742663462677050169,1742663462,664682012,imu_link,-0.01812744140625,0.10205078125,0.00653076171875,0.99456787109375,[0. 0. 0. 0. 0. 0. 0. 0. 0.],0.0078125,-0.00390625,-0.005859375,[0. 0. 0. 0. 0. 0. 0. 0. 0.],-1.953125,-0.34375,9.5,[0. 0. 0. 0. 0. 0. 0. 0. 0.]
1742663462686465565,1742663462,684660183,imu_link,-0.01812744140625,0.10205078125,0.00653076171875,0.99456787109375,[0. 0. 0. 0. 0. 0. 0. 0. 0.],0.0078125,-0.00390625,-0.005859375,[0. 0. 0. 0. 0. 0. 0. 0. 0.],-1.953125,-0.26953125,9.61328125,[0. 0. 0. 0. 0. 0. 0. 0. 0.]
1742663462714536272,1742663462,704664428,imu_link,-0.01812744140625,0.10205078125,0.00653076171875,0.99456787109375,[0. 0. 0. 0. 0. 0. 0. 0. 0.],0.009765625,-0.001953125,0.0,[0. 0. 0. 0. 0. 0. 0. 0. 0.],-1.953125,-0.3828125,9.578125,[0. 0. 0. 0. 0. 0. 0. 0. 0.]
1742663462729313964,1742663462,725915108,imu_link,-0.01806640625,0.10198974609375,0.0064697265625,0.99462890625,[0. 0. 0. 0. 0. 0. 0. 0. 0.],0.009765625,-0.001953125,0.0,[0. 0. 0. 0. 0. 0. 0. 0. 0.],-1.953125,-0.3828125,9.578125,[0. 0. 0. 0. 0. 0. 0. 0. 0.]
1742663462754574374,1742663462,744681882,imu_link,-0.01806640625,0.10198974609375,0.0064697265625,0.99462890625,[0. 0. 0. 0. 0. 0. 0. 0. 0.],0.00390625,-0.001953125,-0.005859375,[0. 0. 0. 0. 0. 0. 0. 0. 0.],-1.9921875,-0.3046875,9.58203125,[0. 0. 0. 0. 0. 0. 0. 0. 0.]
1742663462778510738,1742663462,764932110,imu_link,-0.01800537109375,0.10198974609375,0.00640869140625,0.99462890625,[0. 0. 0. 0. 0. 0. 0. 0. 0.],0.00390625,-0.001953125,-0.005859375,[0. 0. 0. 0. 0. 0. 0. 0. 0.],-1.9921875,-0.3046875,9.58203125,[0. 0. 0. 0. 0. 0. 0. 0. 0.]
