timestamp,header.stamp.sec,header.stamp.nanosec,header.frame_id,orientation.x,orientation.y,orientation.z,orientation.w,orientation_covariance,angular_velocity.x,angular_velocity.y,angular_velocity.z,angular_velocity_covariance,linear_acceleration.x,linear_acceleration.y,linear_acceleration.z,linear_acceleration_covariance
1742663040914186658,1742663040,891030909,imu_link,-0.01556396484375,0.09844970703125,-0.0010986328125,0.9949951171875,[0. 0. 0. 0. 0. 0. 0. 0. 0.],0.0,0.0,0.0,[0. 0. 0. 0. 0. 0. 0. 0. 0.],-1.9140625,-0.3046875,9.58203125,[0. 0. 0. 0. 0. 0. 0. 0. 0.]
1742663040926843755,1742663040,917723597,imu_link,-0.01556396484375,0.09844970703125,-0.0010986328125,0.9949951171875,[0. 0. 0. 0. 0. 0. 0. 0. 0.],0.0,0.0,0.0,[0. 0. 0. 0. 0. 0. 0. 0. 0.],-1.9140625,-0.3046875,9.58203125,[0. 0. 0. 0. 0. 0. 0. 0. 0.]
1742663040936233230,1742663040,933440815,imu_link,-0.01556396484375,0.09844970703125,-0.0010986328125,0.9949951171875,[0. 0. 0. 0. 0. 0. 0. 0. 0.],0.0,0.0,0.0,[0. 0. 0. 0. 0. 0. 0. 0. 0.],-1.9140625,-0.3046875,9.58203125,[0. 0. 0. 0. 0. 0. 0. 0. 0.]
1742663040964429988,1742663040,950038115,imu_link,-0.01556396484375,0.09844970703125,-0.0010986328125,0.9949951171875,[0. 0. 0. 0. 0. 0. 0. 0. 0.],0.0,0.0,0.0,[0. 0. 0. 0. 0. 0. 0. 0. 0.],-1.9140625,-0.3046875,9.58203125,[0. 0. 0. 0. 0. 0. 0. 0. 0.]
1742663040973265846,1742663040,969925742,imu_link,-0.01556396484375,0.09844970703125,-0.0010986328125,0.9949951171875,[0. 0. 0. 0. 0. 0. 0. 0. 0.],0.0,0.0,0.0,[0. 0. 0. 0. 0. 0. 0. 0. 0.],-1.9140625,-0.3046875,9.58203125,[0. 0. 0. 0. 0. 0. 0. 0. 0.]
1742663041009707791,1742663040,990028222,imu_link,-0.01556396484375,0.09844970703125,-0.0010986328125,0.9949951171875,[0. 0. 0. 0. 0. 0. 0. 0. 0.],0.0,0.0,0.0,[0. 0. 0. 0. 0. 0. 0. 0. 0.],-1.9140625,-0.3046875,9.58203125,[0. 0. 0. 0. 0. 0. 0. 0. 0.]
1742663041017873106,1742663041,16094516,imu_link,-0.01556396484375,0.09844970703125,-0.0010986328125,0.9949951171875,[0. 0. 0. 0. 0. 0. 0. 0. 0.],0.0,0.0,0.0,[0. 0. 0. 0. 0. 0. 0. 0. 0.],-1.9140625,-0.3046875,9.58203125,[0. 0. 0. 0. 0. 0. 0. 0. 0.]
1742663041036647204,1742663041,29998643,imu_link,-0.01556396484375,0.09844970703125,-0.0010986328125,0.9949951171875,[0. 0. 0. 0. 0. 0. 0. 0. 0.],0.0,0.0,0.0,[0. 0. 0. 0. 0. 0. 0. 0. 0.],-1.9140625,-0.3046875,9.58203125,[0. 0. 0. 0. 0. 0. 0. 0. 0.]
1742663041064052176,1742663041,50006474,imu_link,-0.01556396484375,0.09844970703125,-0.0010986328125,0.9949951171875,[0. 0. 0. 0. 0. 0. 0. 0. 0.],0.0,0.0,0.0,[0. 0. 0. 0. 0. 0. 0. 0. 0.],-1.9140625,-0.3046875,9.58203125,[0. 0. 0. 0. 0. 0. 0. 0. 0.]
1742663041072653718,1742663041,69931174,imu_link,-0.01556396484375,0.09844970703125,-0.0010986328125,0.9949951171875,[0. 0. 0. 0. 0. 0. 0. 0. 0.],0.0,0.0,0.0,[0. 0. 0. 0. 0. 0. 0. 0. 0.],-1.9140625,-0.3046875,9.58203125,[0. 0. 0. 0. 0. 0. 0. 0. 0.]
1742663041094002080,1742663041,90482251,imu_link,-0.01556396484375,0.09844970703125,-0.0010986328125,0.9949951171875,[0. 0. 0. 0. 0. 0. 0. 0. 0.],0.0,0.0,0.0,[0. 0. 0. 0. 0. 0. 0. 0. 0.],-1.9140625,-0.3046875,9.54296875,[0. 0. 0. 0. 0. 0. 0. 0. 0.]
1742663041124057188,1742663041,109955336,imu_link,-0.01556396484375,0.09844970703125,-0.0010986328125,0.9949951171875,[0. 0. 0. 0. 0. 0. 0. 0. 0.],0.0,0.0,0.0,[0. 0. 0. 0. 0. 0. 0. 0. 0.],-1.9140625,-0.3046875,9.58203125,[0. 0. 0. 0. 0. 0. 0. 0. 0.]
1742663041137246660,1742663041,130027409,imu_link,-0.01556396484375,0.09844970703125,-0.0010986328125,0.9949951171875,[0. 0. 0. 0. 0. 0. 0. 0. 0.],0.0,0.0,0.0,[0. 0. 0. 0. 0. 0. 0. 0. 0.],-1.9140625,-0.3046875,9.58203125,[0. 0. 0. 0. 0. 0. 0. 0. 0.]
1742663041163210175,1742663041,149964758,imu_link,-0.01556396484375,0.09844970703125,-0.0010986328125,0.9949951171875,[0. 0. 0. 0. 0. 0. 0. 0. 0.],0.0,0.0,0.0,[0. 0. 0. 0. 0. 0. 0. 0. 0.],-1.9140625,-0.3046875,9.58203125,[0. 0. 0. 0. 0. 0. 0. 0. 0.]
1742663041180527000,1742663041,169915792,imu_link,-0.01556396484375,0.09844970703125,-0.0010986328125,0.9949951171875,[0. 0. 0. 0. 0. 0. 0. 0. 0.],0.0,0.0,0.0,[0. 0. 0. 0. 0. 0. 0. 0. 0.],-1.9140625,-0.3046875,9.58203125,[0. 0. 0. 0. 0. 0. 0. 0. 0.]
1742663041193652898,1742663041,190013716,imu_link,-0.01556396484375,0.09844970703125,-0.0010986328125,0.9949951171875,[0. 0. 0. 0. 0. 0. 0. 0. 0.],0.0,0.0,0.0,[0. 0. 0. 0. 0. 0. 0. 0. 0.],-1.9140625,-0.3046875,9.58203125,[0. 0. 0. 0. 0. 0. 0. 0. 0.]
1742663041224104917,1742663041,210146937,imu_link,-0.01556396484375,0.09844970703125,-0.0010986328125,0.9949951171875,[0. 0. 0. 0. 0. 0. 0. 0. 0.],0.0,0.0,0.0,[0. 0. 0. 0. 0. 0. 0. 0. 0.],-1.87890625,-0.3046875,9.578125,[0. 0. 0. 0. 0. 0. 0. 0. 0.]
1742663041240762736,1742663041,229927100,imu_link,-0.01556396484375,0.09844970703125,-0.0010986328125,0.9949951171875,[0. 0. 0. 0. 0. 0. 0. 0. 0.],0.0,0.0,0.0,[0. 0. 0. 0. 0. 0. 0. 0. 0.],-1.87890625,-0.3046875,9.578125,[0. 0. 0. 0. 0. 0. 0. 0. 0.]
1742663041262319599,1742663041,249947875,imu_link,-0.01556396484375,0.09844970703125,-0.0010986328125,0.9949951171875,[0. 0. 0. 0. 0. 0. 0. 0. 0.],0.0,0.0,0.0,[0. 0. 0. 0. 0. 0. 0. 0. 0.],-1.87890625,-0.3046875,9.578125,[0. 0. 0. 0. 0. 0. 0. 0. 0.]
1742663041273465831,1742663041,269994521,imu_link,-0.01556396484375,0.09844970703125,-0.0010986328125,0.9949951171875,[0. 0. 0. 0. 0. 0. 0. 0. 0.],0.0,0.0,0.0,[0. 0. 0. 0. 0. 0. 0. 0. 0.],-1.9140625,-0.3046875,9.58203125,[0. 0. 0. 0. 0. 0. 0. 0. 0.]
1742663041310662430,1742663041,290010352,imu_link,-0.01556396484375,0.098388671875,-0.0010986328125,0.9949951171875,[0. 0. 0. 0. 0. 0. 0. 0. 0.],0.0,0.0,0.0,[0. 0. 0. 0. 0. 0. 0. 0. 0.],-1.9140625,-0.3046875,9.58203125,[0. 0. 0. 0. 0. 0. 0. 0. 0.]
1742663041315344288,1742663041,313209824,imu_link,-0.01556396484375,0.098388671875,-0.0010986328125,0.9949951171875,[0. 0. 0. 0. 0. 0. 0. 0. 0.],0.0,0.0,0.0,[0. 0. 0. 0. 0. 0. 0. 0. 0.],-1.9140625,-0.3046875,9.58203125,[0. 0. 0. 0. 0. 0. 0. 0. 0.]
1742663041341604842,1742663041,329979347,imu_link,-0.01556396484375,0.098388671875,-0.0010986328125,0.9949951171875,[0. 0. 0. 0. 0. 0. 0. 0. 0.],0.0,0.0,0.0,[0. 0. 0. 0. 0. 0. 0. 0. 0.],-1.9140625,-0.3046875,9.58203125,[0. 0. 0. 0. 0. 0. 0. 0. 0.]
1742663041366512051,1742663041,349928511,imu_link,-0.01556396484375,0.098388671875,-0.0010986328125,0.9949951171875,[0. 0. 0. 0. 0. 0. 0. 0. 0.],0.0,0.0,0.0,[0. 0. 0. 0. 0. 0. 0. 0. 0.],-1.9140625,-0.3046875,9.54296875,[0. 0. 0. 0. 0. 0. 0. 0. 0.]
1742663041373213483,1742663041,369914509,imu_link,-0.01556396484375,0.098388671875,-0.0010986328125,0.9949951171875,[0. 0. 0. 0. 0. 0. 0. 0. 0.],0.0,0.0,0.0,[0. 0. 0. 0. 0. 0. 0. 0. 0.],-1.9140625,-0.3046875,9.54296875,[0. 0. 0. 0. 0. 0. 0. 0. 0.]
1742663041410541213,1742663041,390013100,imu_link,-0.01556396484375,0.098388671875,-0.0010986328125,0.99505615234375,[0. 0. 0. 0. 0. 0. 0. 0. 0.],0.0,0.0,0.0,[0. 0. 0. 0. 0. 0. 0. 0. 0.],-1.9140625,-0.3046875,9.58203125,[0. 0. 0. 0. 0. 0. 0. 0. 0.]
1742663041415908114,1742663041,413236386,imu_link,-0.01556396484375,0.098388671875,-0.0010986328125,0.99505615234375,[0. 0. 0. 0. 0. 0. 0. 0. 0.],0.0,0.0,0.0,[0. 0. 0. 0. 0. 0. 0. 0. 0.],-1.9140625,-0.3046875,9.58203125,[0. 0. 0. 0. 0. 0. 0. 0. 0.]
1742663041441370976,1742663041,429963113,imu_link,-0.01556396484375,0.098388671875,-0.0010986328125,0.99505615234375,[0. 0. 0. 0. 0. 0. 0. 0. 0.],0.0,0.0,0.0,[0. 0. 0. 0. 0. 0. 0. 0. 0.],-1.9140625,-0.3046875,9.58203125,[0. 0. 0. 0. 0. 0. 0. 0. 0.]
1742663041463746181,1742663041,450020500,imu_link,-0.01556396484375,0.09832763671875,-0.0010986328125,0.99505615234375,[0. 0. 0. 0. 0. 0. 0. 0. 0.],0.0,0.0,0.0,[0. 0. 0. 0. 0. 0. 0. 0. 0.],-1.9140625,-0.3046875,9.58203125,[0. 0. 0. 0. 0. 0. 0. 0. 0.]
1742663041473229916,1742663041,469918589,imu_link,-0.01556396484375,0.09832763671875,-0.0010986328125,0.99505615234375,[0. 0. 0. 0. 0. 0. 0. 0. 0.],0.0,0.0,0.0,[0. 0. 0. 0. 0. 0. 0. 0. 0.],-1.9140625,-0.3046875,9.58203125,[0. 0. 0. 0. 0. 0. 0. 0. 0.]
1742663041506455571,1742663041,490024847,imu_link,-0.01556396484375,0.09832763671875,-0.0010986328125,0.99505615234375,[0. 0. 0. 0. 0. 0. 0. 0. 0.],0.0,0.0,0.0,[0. 0. 0. 0. 0. 0. 0. 0. 0.],-1.9140625,-0.3046875,9.58203125,[0. 0. 0. 0. 0. 0. 0. 0. 0.]
1742663041513256781,1742663041,509920214,imu_link,-0.01556396484375,0.09832763671875,-0.0010986328125,0.99505615234375,[0. 0. 0. 0. 0. 0. 0. 0. 0.],0.0,0.0,0.0,[0. 0. 0. 0. 0. 0. 0. 0. 0.],-1.9140625,-0.3046875,9.58203125,[0. 0. 0. 0. 0. 0. 0. 0. 0.]
1742663041541667115,1742663041,529979194,imu_link,-0.01556396484375,0.09832763671875,-0.0010986328125,0.99505615234375,[0. 0. 0. 0. 0. 0. 0. 0. 0.],0.0,0.0,0.0,[0. 0. 0. 0. 0. 0. 0. 0. 0.],-1.9140625,-0.3046875,9.58203125,[0. 0. 0. 0. 0. 0. 0. 0. 0.]
1742663041563952023,1742663041,549931487,imu_link,-0.01556396484375,0.09832763671875,-0.0010986328125,0.99505615234375,[0. 0. 0. 0. 0. 0. 0. 0. 0.],0.0,0.0,0.0,[0. 0. 0. 0. 0. 0. 0. 0. 0.],-1.9140625,-0.3046875,9.58203125,[0. 0. 0. 0. 0. 0. 0. 0. 0.]
1742663041573239256,1742663041,569919059,imu_link,-0.01556396484375,0.09832763671875,-0.0010986328125,0.99505615234375,[0. 0. 0. 0. 0. 0. 0. 0. 0.],0.0,0.0,0.0,[0. 0. 0. 0. 0. 0. 0. 0. 0.],-1.9140625,-0.3046875,9.58203125,[0. 0. 0. 0. 0. 0. 0. 0. 0.]
1742663041610055055,1742663041,590198337,imu_link,-0.01556396484375,0.09832763671875,-0.0010986328125,0.99505615234375,[0. 0. 0. 0. 0. 0. 0. 0. 0.],0.0,0.0,0.0,[0. 0. 0. 0. 0. 0. 0. 0. 0.],-1.9140625,-0.3046875,9.58203125,[0. 0. 0. 0. 0. 0. 0. 0. 0.]
1742663041619824996,1742663041,616399891,imu_link,-0.01556396484375,0.09832763671875,-0.0010986328125,0.99505615234375,[0. 0. 0. 0. 0. 0. 0. 0. 0.],0.0,0.0,0.0,[0. 0. 0. 0. 0. 0. 0. 0. 0.],-1.9140625,-0.3046875,9.58203125,[0. 0. 0. 0. 0. 0. 0. 0. 0.]
1742663041635521621,1742663041,629998811,imu_link,-0.01556396484375,0.09832763671875,-0.0010986328125,0.99505615234375,[0. 0. 0. 0. 0. 0. 0. 0. 0.],0.0,0.0,0.0,[0. 0. 0. 0. 0. 0. 0. 0. 0.],-1.9140625,-0.3046875,9.58203125,[0. 0. 0. 0. 0. 0. 0. 0. 0.]
1742663041664119123,1742663041,650003383,imu_link,-0.01556396484375,0.09832763671875,-0.0010986328125,0.99505615234375,[0. 0. 0. 0. 0. 0. 0. 0. 0.],0.0,0.0,0.0,[0. 0. 0. 0. 0. 0. 0. 0. 0.],-1.9140625,-0.3046875,9.58203125,[0. 0. 0. 0. 0. 0. 0. 0. 0.]
1742663041672649664,1742663041,669917750,imu_link,-0.01556396484375,0.09832763671875,-0.0010986328125,0.99505615234375,[0. 0. 0. 0. 0. 0. 0. 0. 0.],0.0,0.0,0.0,[0. 0. 0. 0. 0. 0. 0. 0. 0.],-1.9140625,-0.3046875,9.58203125,[0. 0. 0. 0. 0. 0. 0. 0. 0.]
1742663041693383113,1742663041,689997804,imu_link,-0.01556396484375,0.09832763671875,-0.0010986328125,0.99505615234375,[0. 0. 0. 0. 0. 0. 0. 0. 0.],0.0,0.0,0.0,[0. 0. 0. 0. 0. 0. 0. 0. 0.],-1.9140625,-0.3046875,9.58203125,[0. 0. 0. 0. 0. 0. 0. 0. 0.]
1742663041723928503,1742663041,709957338,imu_link,-0.01556396484375,0.09832763671875,-0.0010986328125,0.99505615234375,[0. 0. 0. 0. 0. 0. 0. 0. 0.],0.0,0.0,0.0,[0. 0. 0. 0. 0. 0. 0. 0. 0.],-1.9140625,-0.3046875,9.58203125,[0. 0. 0. 0. 0. 0. 0. 0. 0.]
1742663041737211736,1742663041,729923447,imu_link,-0.01556396484375,0.09832763671875,-0.0010986328125,0.99505615234375,[0. 0. 0. 0. 0. 0. 0. 0. 0.],0.0,0.0,0.0,[0. 0. 0. 0. 0. 0. 0. 0. 0.],-1.9140625,-0.3046875,9.58203125,[0. 0. 0. 0. 0. 0. 0. 0. 0.]
1742663041763281789,1742663041,749949000,imu_link,-0.01556396484375,0.098388671875,-0.0010986328125,0.99505615234375,[0. 0. 0. 0. 0. 0. 0. 0. 0.],0.0,0.0,0.0,[0. 0. 0. 0. 0. 0. 0. 0. 0.],-1.9140625,-0.3046875,9.58203125,[0. 0. 0. 0. 0. 0. 0. 0. 0.]
1742663041780971432,1742663041,770147611,imu_link,-0.01556396484375,0.098388671875,-0.0010986328125,0.99505615234375,[0. 0. 0. 0. 0. 0. 0. 0. 0.],0.0,0.0,0.0,[0. 0. 0. 0. 0. 0. 0. 0. 0.],-1.9140625,-0.3046875,9.58203125,[0. 0. 0. 0. 0. 0. 0. 0. 0.]
1742663041793445101,1742663041,790014440,imu_link,-0.01556396484375,0.098388671875,-0.0010986328125,0.99505615234375,[0. 0. 0. 0. 0. 0. 0. 0. 0.],0.0,0.0,0.0,[0. 0. 0. 0. 0. 0. 0. 0. 0.],-1.9140625,-0.3046875,9.58203125,[0. 0. 0. 0. 0. 0. 0. 0. 0.]
1742663041823279374,1742663041,809969549,imu_link,-0.01556396484375,0.098388671875,-0.0010986328125,0.99505615234375,[0. 0. 0. 0. 0. 0. 0. 0. 0.],0.0,0.0,0.0,[0. 0. 0. 0. 0. 0. 0. 0. 0.],-1.9140625,-0.3046875,9.58203125,[0. 0. 0. 0. 0. 0. 0. 0. 0.]
1742663041840678681,1742663041,829939583,imu_link,-0.01556396484375,0.098388671875,-0.0010986328125,0.99505615234375,[0. 0. 0. 0. 0. 0. 0. 0. 0.],0.0,0.0,0.0,[0. 0. 0. 0. 0. 0. 0. 0. 0.],-1.9140625,-0.3046875,9.58203125,[0. 0. 0. 0. 0. 0. 0. 0. 0.]
1742663041862399528,1742663041,849993840,imu_link,-0.01556396484375,0.098388671875,-0.0010986328125,0.99505615234375,[0. 0. 0. 0. 0. 0. 0. 0. 0.],0.0,0.0,0.0,[0. 0. 0. 0. 0. 0. 0. 0. 0.],-1.9140625,-0.3046875,9.58203125,[0. 0. 0. 0. 0. 0. 0. 0. 0.]
1742663041873290813,1742663041,869925837,imu_link,-0.01556396484375,0.098388671875,-0.0010986328125,0.99505615234375,[0. 0. 0. 0. 0. 0. 0. 0. 0.],0.0,0.0,0.0,[0. 0. 0. 0. 0. 0. 0. 0. 0.],-1.9140625,-0.3046875,9.58203125,[0. 0. 0. 0. 0. 0. 0. 0. 0.]
1742663041909606626,1742663041,890023595,imu_link,-0.01556396484375,0.098388671875,-0.0010986328125,0.99505615234375,[0. 0. 0. 0. 0. 0. 0. 0. 0.],0.0,0.0,0.0,[0. 0. 0. 0. 0. 0. 0. 0. 0.],-1.9140625,-0.3046875,9.58203125,[0. 0. 0. 0. 0. 0. 0. 0. 0.]
1742663041914359114,1742663041,912479819,imu_link,-0.01556396484375,0.098388671875,-0.0010986328125,0.99505615234375,[0. 0. 0. 0. 0. 0. 0. 0. 0.],0.0,0.0,0.0,[0. 0. 0. 0. 0. 0. 0. 0. 0.],-1.9140625,-0.3046875,9.58203125,[0. 0. 0. 0. 0. 0. 0. 0. 0.]
1742663041940776040,1742663041,930031553,imu_link,-0.01556396484375,0.098388671875,-0.0010986328125,0.99505615234375,[0. 0. 0. 0. 0. 0. 0. 0. 0.],0.0,0.0,0.0,[0. 0. 0. 0. 0. 0. 0. 0. 0.],-1.9140625,-0.3046875,9.58203125,[0. 0. 0. 0. 0. 0. 0. 0. 0.]
1742663041965404673,1742663041,949968347,imu_link,-0.01556396484375,0.098388671875,-0.0010986328125,0.99505615234375,[0. 0. 0. 0. 0. 0. 0. 0. 0.],0.0,0.0,0.0,[0. 0. 0. 0. 0. 0. 0. 0. 0.],-1.9140625,-0.3046875,9.58203125,[0. 0. 0. 0. 0. 0. 0. 0. 0.]
1742663041973391505,1742663041,969911362,imu_link,-0.01556396484375,0.098388671875,-0.0010986328125,0.99505615234375,[0. 0. 0. 0. 0. 0. 0. 0. 0.],0.0,0.0,0.0,[0. 0. 0. 0. 0. 0. 0. 0. 0.],-1.9140625,-0.3046875,9.58203125,[0. 0. 0. 0. 0. 0. 0. 0. 0.]
1742663042009660466,1742663041,990013898,imu_link,-0.01556396484375,0.098388671875,-0.0010986328125,0.99505615234375,[0. 0. 0. 0. 0. 0. 0. 0. 0.],0.0,0.0,0.0,[0. 0. 0. 0. 0. 0. 0. 0. 0.],-1.9140625,-0.3046875,9.58203125,[0. 0. 0. 0. 0. 0. 0. 0. 0.]
1742663042014080155,1742663042,12183711,imu_link,-0.01556396484375,0.098388671875,-0.0010986328125,0.99505615234375,[0. 0. 0. 0. 0. 0. 0. 0. 0.],0.0,0.0,0.0,[0. 0. 0. 0. 0. 0. 0. 0. 0.],-1.9140625,-0.3046875,9.58203125,[0. 0. 0. 0. 0. 0. 0. 0. 0.]
1742663042040724991,1742663042,30026430,imu_link,-0.01556396484375,0.098388671875,-0.0010986328125,0.99505615234375,[0. 0. 0. 0. 0. 0. 0. 0. 0.],0.0,0.0,0.0,[0. 0. 0. 0. 0. 0. 0. 0. 0.],-1.9140625,-0.3046875,9.58203125,[0. 0. 0. 0. 0. 0. 0. 0. 0.]
1742663042063298308,1742663042,49934371,imu_link,-0.01556396484375,0.098388671875,-0.0010986328125,0.99505615234375,[0. 0. 0. 0. 0. 0. 0. 0. 0.],0.0,0.0,0.0,[0. 0. 0. 0. 0. 0. 0. 0. 0.],-1.9140625,-0.3046875,9.58203125,[0. 0. 0. 0. 0. 0. 0. 0. 0.]
1742663042072636078,1742663042,69922776,imu_link,-0.01556396484375,0.098388671875,-0.0010986328125,0.99505615234375,[0. 0. 0. 0. 0. 0. 0. 0. 0.],0.0,0.0,0.0,[0. 0. 0. 0. 0. 0. 0. 0. 0.],-1.9140625,-0.3046875,9.58203125,[0. 0. 0. 0. 0. 0. 0. 0. 0.]
1742663042107931252,1742663042,90105145,imu_link,-0.01556396484375,0.098388671875,-0.0010986328125,0.99505615234375,[0. 0. 0. 0. 0. 0. 0. 0. 0.],0.0,0.0,0.0,[0. 0. 0. 0. 0. 0. 0. 0. 0.],-1.9140625,-0.3046875,9.58203125,[0. 0. 0. 0. 0. 0. 0. 0. 0.]
1742663042113209578,1742663042,110495979,imu_link,-0.01556396484375,0.098388671875,-0.0010986328125,0.99505615234375,[0. 0. 0. 0. 0. 0. 0. 0. 0.],0.0,0.0,0.0,[0. 0. 0. 0. 0. 0. 0. 0. 0.],-1.9140625,-0.3046875,9.58203125,[0. 0. 0. 0. 0. 0. 0. 0. 0.]
1742663042140714626,1742663042,130048251,imu_link,-0.01556396484375,0.098388671875,-0.0010986328125,0.99505615234375,[0. 0. 0. 0. 0. 0. 0. 0. 0.],0.0,0.0,0.0,[0. 0. 0. 0. 0. 0. 0. 0. 0.],-1.9140625,-0.3046875,9.58203125,[0. 0. 0. 0. 0. 0. 0. 0. 0.]
1742663042163323665,1742663042,149938895,imu_link,-0.01556396484375,0.098388671875,-0.0010986328125,0.9949951171875,[0. 0. 0. 0. 0. 0. 0. 0. 0.],0.0,0.0,0.0,[0. 0. 0. 0. 0. 0. 0. 0. 0.],-1.9140625,-0.3046875,9.58203125,[0. 0. 0. 0. 0. 0. 0. 0. 0.]
1742663042172685177,1742663042,169943133,imu_link,-0.01556396484375,0.098388671875,-0.0010986328125,0.9949951171875,[0. 0. 0. 0. 0. 0. 0. 0. 0.],0.0,0.0,0.0,[0. 0. 0. 0. 0. 0. 0. 0. 0.],-1.9140625,-0.3046875,9.58203125,[0. 0. 0. 0. 0. 0. 0. 0. 0.]
1742663042208837914,1742663042,190045095,imu_link,-0.01556396484375,0.098388671875,-0.0010986328125,0.9949951171875,[0. 0. 0. 0. 0. 0. 0. 0. 0.],0.0,0.0,0.0,[0. 0. 0. 0. 0. 0. 0. 0. 0.],-1.9140625,-0.3046875,9.54296875,[0. 0. 0. 0. 0. 0. 0. 0. 0.]
1742663042218852950,1742663042,215503012,imu_link,-0.01556396484375,0.098388671875,-0.0010986328125,0.9949951171875,[0. 0. 0. 0. 0. 0. 0. 0. 0.],0.0,0.0,0.0,[0. 0. 0. 0. 0. 0. 0. 0. 0.],-1.87890625,-0.3046875,9.578125,[0. 0. 0. 0. 0. 0. 0. 0. 0.]
1742663042237106228,1742663042,230022830,imu_link,-0.01556396484375,0.098388671875,-0.0010986328125,0.9949951171875,[0. 0. 0. 0. 0. 0. 0. 0. 0.],0.0,0.0,0.0,[0. 0. 0. 0. 0. 0. 0. 0. 0.],-1.87890625,-0.3046875,9.578125,[0. 0. 0. 0. 0. 0. 0. 0. 0.]
1742663042262565072,1742663042,250003272,imu_link,-0.01556396484375,0.098388671875,-0.0010986328125,0.9949951171875,[0. 0. 0. 0. 0. 0. 0. 0. 0.],0.0,0.0,0.0,[0. 0. 0. 0. 0. 0. 0. 0. 0.],-1.9140625,-0.3046875,9.58203125,[0. 0. 0. 0. 0. 0. 0. 0. 0.]
1742663042272959555,1742663042,270075585,imu_link,-0.01556396484375,0.098388671875,-0.0010986328125,0.9949951171875,[0. 0. 0. 0. 0. 0. 0. 0. 0.],0.0,0.0,0.0,[0. 0. 0. 0. 0. 0. 0. 0. 0.],-1.9140625,-0.3046875,9.58203125,[0. 0. 0. 0. 0. 0. 0. 0. 0.]
1742663042292709643,1742663042,289940118,imu_link,-0.01556396484375,0.098388671875,-0.0010986328125,0.9949951171875,[0. 0. 0. 0. 0. 0. 0. 0. 0.],0.0,0.0,0.0,[0. 0. 0. 0. 0. 0. 0. 0. 0.],-1.9140625,-0.3046875,9.58203125,[0. 0. 0. 0. 0. 0. 0. 0. 0.]
1742663042323451757,1742663042,310006283,imu_link,-0.01556396484375,0.098388671875,-0.0010986328125,0.9949951171875,[0. 0. 0. 0. 0. 0. 0. 0. 0.],0.0,0.0,0.0,[0. 0. 0. 0. 0. 0. 0. 0. 0.],-1.9140625,-0.3046875,9.58203125,[0. 0. 0. 0. 0. 0. 0. 0. 0.]
1742663042335768036,1742663042,329971261,imu_link,-0.01556396484375,0.098388671875,-0.0010986328125,0.9949951171875,[0. 0. 0. 0. 0. 0. 0. 0. 0.],0.0,0.0,0.0,[0. 0. 0. 0. 0. 0. 0. 0. 0.],-1.9140625,-0.3046875,9.58203125,[0. 0. 0. 0. 0. 0. 0. 0. 0.]
1742663042362455576,1742663042,349995000,imu_link,-0.01556396484375,0.098388671875,-0.0010986328125,0.9949951171875,[0. 0. 0. 0. 0. 0. 0. 0. 0.],0.0,0.0,0.0,[0. 0. 0. 0. 0. 0. 0. 0. 0.],-1.9140625,-0.3046875,9.58203125,[0. 0. 0. 0. 0. 0. 0. 0. 0.]
1742663042381828827,1742663042,369944145,imu_link,-0.01556396484375,0.098388671875,-0.0010986328125,0.9949951171875,[0. 0. 0. 0. 0. 0. 0. 0. 0.],0.0,0.0,0.0,[0. 0. 0. 0. 0. 0. 0. 0. 0.],-1.9140625,-0.3046875,9.58203125,[0. 0. 0. 0. 0. 0. 0. 0. 0.]
1742663042392694445,1742663042,389924846,imu_link,-0.01556396484375,0.098388671875,-0.0010986328125,0.9949951171875,[0. 0. 0. 0. 0. 0. 0. 0. 0.],0.0,0.0,0.0,[0. 0. 0. 0. 0. 0. 0. 0. 0.],-1.9140625,-0.3046875,9.58203125,[0. 0. 0. 0. 0. 0. 0. 0. 0.]
1742663042423053407,1742663042,410230698,imu_link,-0.01556396484375,0.098388671875,-0.0010986328125,0.9949951171875,[0. 0. 0. 0. 0. 0. 0. 0. 0.],0.0,0.0,0.0,[0. 0. 0. 0. 0. 0. 0. 0. 0.],-1.9140625,-0.3046875,9.58203125,[0. 0. 0. 0. 0. 0. 0. 0. 0.]
1742663042436374696,1742663042,429932618,imu_link,-0.01556396484375,0.098388671875,-0.0010986328125,0.9949951171875,[0. 0. 0. 0. 0. 0. 0. 0. 0.],0.0,0.0,0.0,[0. 0. 0. 0. 0. 0. 0. 0. 0.],-1.9140625,-0.3046875,9.58203125,[0. 0. 0. 0. 0. 0. 0. 0. 0.]
1742663042462441304,1742663042,450034617,imu_link,-0.01556396484375,0.098388671875,-0.0010986328125,0.9949951171875,[0. 0. 0. 0. 0. 0. 0. 0. 0.],0.0,0.0,0.0,[0. 0. 0. 0. 0. 0. 0. 0. 0.],-1.9140625,-0.3046875,9.58203125,[0. 0. 0. 0. 0. 0. 0. 0. 0.]
1742663042472636675,1742663042,469912372,imu_link,-0.01556396484375,0.098388671875,-0.0010986328125,0.9949951171875,[0. 0. 0. 0. 0. 0. 0. 0. 0.],0.0,0.0,0.0,[0. 0. 0. 0. 0. 0. 0. 0. 0.],-1.9140625,-0.3046875,9.58203125,[0. 0. 0. 0. 0. 0. 0. 0. 0.]
1742663042507163490,1742663042,490032389,imu_link,-0.01556396484375,0.098388671875,-0.0010986328125,0.9949951171875,[0. 0. 0. 0. 0. 0. 0. 0. 0.],0.0,0.0,0.0,[0. 0. 0. 0. 0. 0. 0. 0. 0.],-1.9140625,-0.3046875,9.58203125,[0. 0. 0. 0. 0. 0. 0. 0. 0.]
1742663042512753412,1742663042,509991627,imu_link,-0.01556396484375,0.098388671875,-0.0010986328125,0.9949951171875,[0. 0. 0. 0. 0. 0. 0. 0. 0.],0.0,0.0,0.0,[0. 0. 0. 0. 0. 0. 0. 0. 0.],-1.9140625,-0.3046875,9.58203125,[0. 0. 0. 0. 0. 0. 0. 0. 0.]
1742663042540009364,1742663042,530029884,imu_link,-0.01556396484375,0.098388671875,-0.0010986328125,0.9949951171875,[0. 0. 0. 0. 0. 0. 0. 0. 0.],0.0,0.0,0.0,[0. 0. 0. 0. 0. 0. 0. 0. 0.],-1.9140625,-0.3046875,9.58203125,[0. 0. 0. 0. 0. 0. 0. 0. 0.]
1742663042564767257,1742663042,549951603,imu_link,-0.01556396484375,0.098388671875,-0.0010986328125,0.9949951171875,[0. 0. 0. 0. 0. 0. 0. 0. 0.],0.0,0.0,0.0,[0. 0. 0. 0. 0. 0. 0. 0. 0.],-1.9140625,-0.3046875,9.58203125,[0. 0. 0. 0. 0. 0. 0. 0. 0.]
1742663042572646625,1742663042,569924082,imu_link,-0.01556396484375,0.098388671875,-0.0010986328125,0.9949951171875,[0. 0. 0. 0. 0. 0. 0. 0. 0.],0.0,0.0,0.0,[0. 0. 0. 0. 0. 0. 0. 0. 0.],-1.9140625,-0.3046875,9.58203125,[0. 0. 0. 0. 0. 0. 0. 0. 0.]
1742663042607608463,1742663042,590183452,imu_link,-0.01556396484375,0.098388671875,-0.0010986328125,0.9949951171875,[0. 0. 0. 0. 0. 0. 0. 0. 0.],0.0,0.0,0.0,[0. 0. 0. 0. 0. 0. 0. 0. 0.],-1.9140625,-0.3046875,9.58203125,[0. 0. 0. 0. 0. 0. 0. 0. 0.]
1742663042612261376,1742663042,610165690,imu_link,-0.01556396484375,0.098388671875,-0.0010986328125,0.9949951171875,[0. 0. 0. 0. 0. 0. 0. 0. 0.],0.0,0.0,0.0,[0. 0. 0. 0. 0. 0. 0. 0. 0.],-1.9140625,-0.3046875,9.58203125,[0. 0. 0. 0. 0. 0. 0. 0. 0.]
1742663042640792877,1742663042,630061316,imu_link,-0.01556396484375,0.098388671875,-0.0010986328125,0.9949951171875,[0. 0. 0. 0. 0. 0. 0. 0. 0.],0.0,0.0,0.0,[0. 0. 0. 0. 0. 0. 0. 0. 0.],-1.9140625,-0.3046875,9.58203125,[0. 0. 0. 0. 0. 0. 0. 0. 0.]
1742663042662631947,1742663042,649942923,imu_link,-0.01556396484375,0.098388671875,-0.0010986328125,0.9949951171875,[0. 0. 0. 0. 0. 0. 0. 0. 0.],0.0,0.0,0.0,[0. 0. 0. 0. 0. 0. 0. 0. 0.],-1.9140625,-0.3046875,9.58203125,[0. 0. 0. 0. 0. 0. 0. 0. 0.]
1742663042672051940,1742663042,669931939,imu_link,-0.01556396484375,0.098388671875,-0.0010986328125,0.9949951171875,[0. 0. 0. 0. 0. 0. 0. 0. 0.],0.0,0.0,0.0,[0. 0. 0. 0. 0. 0. 0. 0. 0.],-1.9140625,-0.3046875,9.58203125,[0. 0. 0. 0. 0. 0. 0. 0. 0.]
1742663042706948259,1742663042,690025234,imu_link,-0.01556396484375,0.098388671875,-0.0010986328125,0.9949951171875,[0. 0. 0. 0. 0. 0. 0. 0. 0.],0.0,0.0,0.0,[0. 0. 0. 0. 0. 0. 0. 0. 0.],-1.9140625,-0.3046875,9.58203125,[0. 0. 0. 0. 0. 0. 0. 0. 0.]
1742663042711988545,1742663042,709912378,imu_link,-0.01556396484375,0.098388671875,-0.0010986328125,0.9949951171875,[0. 0. 0. 0. 0. 0. 0. 0. 0.],0.0,0.0,0.0,[0. 0. 0. 0. 0. 0. 0. 0. 0.],-1.9140625,-0.3046875,9.58203125,[0. 0. 0. 0. 0. 0. 0. 0. 0.]
1742663042741393703,1742663042,730023747,imu_link,-0.01556396484375,0.098388671875,-0.0010986328125,0.9949951171875,[0. 0. 0. 0. 0. 0. 0. 0. 0.],0.0,0.0,0.0,[0. 0. 0. 0. 0. 0. 0. 0. 0.],-1.87890625,-0.3046875,9.578125,[0. 0. 0. 0. 0. 0. 0. 0. 0.]
1742663042762515636,1742663042,750018708,imu_link,-0.01556396484375,0.098388671875,-0.0010986328125,0.9949951171875,[0. 0. 0. 0. 0. 0. 0. 0. 0.],0.0,0.0,0.0,[0. 0. 0. 0. 0. 0. 0. 0. 0.],-1.9140625,-0.3046875,9.58203125,[0. 0. 0. 0. 0. 0. 0. 0. 0.]
1742663042772281226,1742663042,770029427,imu_link,-0.01556396484375,0.098388671875,-0.0010986328125,0.9949951171875,[0. 0. 0. 0. 0. 0. 0. 0. 0.],0.0,0.0,0.0,[0. 0. 0. 0. 0. 0. 0. 0. 0.],-1.9140625,-0.3046875,9.58203125,[0. 0. 0. 0. 0. 0. 0. 0. 0.]
1742663042806933783,1742663042,789969109,imu_link,-0.01556396484375,0.098388671875,-0.0010986328125,0.9949951171875,[0. 0. 0. 0. 0. 0. 0. 0. 0.],0.0,0.0,0.0,[0. 0. 0. 0. 0. 0. 0. 0. 0.],-1.9140625,-0.3046875,9.58203125,[0. 0. 0. 0. 0. 0. 0. 0. 0.]
1742663042817480898,1742663042,809932514,imu_link,-0.01556396484375,0.098388671875,-0.0010986328125,0.9949951171875,[0. 0. 0. 0. 0. 0. 0. 0. 0.],0.0,0.0,0.0,[0. 0. 0. 0. 0. 0. 0. 0. 0.],-1.9140625,-0.3046875,9.58203125,[0. 0. 0. 0. 0. 0. 0. 0. 0.]
1742663042836861815,1742663042,829982586,imu_link,-0.01556396484375,0.098388671875,-0.0010986328125,0.9949951171875,[0. 0. 0. 0. 0. 0. 0. 0. 0.],0.0,0.0,0.0,[0. 0. 0. 0. 0. 0. 0. 0. 0.],-1.9140625,-0.3046875,9.58203125,[0. 0. 0. 0. 0. 0. 0. 0. 0.]
1742663042862493660,1742663042,849998657,imu_link,-0.01556396484375,0.09844970703125,-0.00103759765625,0.9949951171875,[0. 0. 0. 0. 0. 0. 0. 0. 0.],0.0,0.0,0.0,[0. 0. 0. 0. 0. 0. 0. 0. 0.],-1.9140625,-0.3046875,9.58203125,[0. 0. 0. 0. 0. 0. 0. 0. 0.]
1742663042872195990,1742663042,870015025,imu_link,-0.01556396484375,0.09844970703125,-0.00103759765625,0.9949951171875,[0. 0. 0. 0. 0. 0. 0. 0. 0.],0.0,0.0,0.0,[0. 0. 0. 0. 0. 0. 0. 0. 0.],-1.9140625,-0.3046875,9.58203125,[0. 0. 0. 0. 0. 0. 0. 0. 0.]
1742663042911520349,1742663042,890018819,imu_link,-0.01556396484375,0.09844970703125,-0.00103759765625,0.9949951171875,[0. 0. 0. 0. 0. 0. 0. 0. 0.],0.0,0.0,0.0,[0. 0. 0. 0. 0. 0. 0. 0. 0.],-1.87890625,-0.3046875,9.578125,[0. 0. 0. 0. 0. 0. 0. 0. 0.]
1742663042917149437,1742663042,913231994,imu_link,-0.01556396484375,0.09844970703125,-0.00103759765625,0.9949951171875,[0. 0. 0. 0. 0. 0. 0. 0. 0.],0.0,0.0,0.0,[0. 0. 0. 0. 0. 0. 0. 0. 0.],-1.9140625,-0.3046875,9.58203125,[0. 0. 0. 0. 0. 0. 0. 0. 0.]
1742663042935531549,1742663042,929967480,imu_link,-0.01556396484375,0.09844970703125,-0.00103759765625,0.9949951171875,[0. 0. 0. 0. 0. 0. 0. 0. 0.],0.0,0.0,0.0,[0. 0. 0. 0. 0. 0. 0. 0. 0.],-1.9140625,-0.3046875,9.58203125,[0. 0. 0. 0. 0. 0. 0. 0. 0.]
1742663042962213163,1742663042,949969533,imu_link,-0.01556396484375,0.098388671875,-0.00103759765625,0.9949951171875,[0. 0. 0. 0. 0. 0. 0. 0. 0.],0.0,0.0,0.0,[0. 0. 0. 0. 0. 0. 0. 0. 0.],-1.9140625,-0.3046875,9.58203125,[0. 0. 0. 0. 0. 0. 0. 0. 0.]
1742663042981203504,1742663042,969990105,imu_link,-0.01556396484375,0.098388671875,-0.00103759765625,0.9949951171875,[0. 0. 0. 0. 0. 0. 0. 0. 0.],0.0,0.0,0.0,[0. 0. 0. 0. 0. 0. 0. 0. 0.],-1.9140625,-0.3046875,9.58203125,[0. 0. 0. 0. 0. 0. 0. 0. 0.]
1742663042992172659,1742663042,989985010,imu_link,-0.01556396484375,0.098388671875,-0.00103759765625,0.9949951171875,[0. 0. 0. 0. 0. 0. 0. 0. 0.],0.0,0.0,0.0,[0. 0. 0. 0. 0. 0. 0. 0. 0.],-1.9140625,-0.3046875,9.58203125,[0. 0. 0. 0. 0. 0. 0. 0. 0.]
1742663043026768512,1742663043,9974229,imu_link,-0.01556396484375,0.098388671875,-0.00103759765625,0.99505615234375,[0. 0. 0. 0. 0. 0. 0. 0. 0.],0.0,0.0,0.0,[0. 0. 0. 0. 0. 0. 0. 0. 0.],-1.9140625,-0.3046875,9.58203125,[0. 0. 0. 0. 0. 0. 0. 0. 0.]
1742663043036363211,1742663043,29920485,imu_link,-0.01556396484375,0.098388671875,-0.00103759765625,0.99505615234375,[0. 0. 0. 0. 0. 0. 0. 0. 0.],0.0,0.0,0.0,[0. 0. 0. 0. 0. 0. 0. 0. 0.],-1.9140625,-0.3046875,9.58203125,[0. 0. 0. 0. 0. 0. 0. 0. 0.]
1742663043062104612,1742663043,49930168,imu_link,-0.01556396484375,0.09832763671875,-0.00103759765625,0.99505615234375,[0. 0. 0. 0. 0. 0. 0. 0. 0.],0.0,0.0,0.0,[0. 0. 0. 0. 0. 0. 0. 0. 0.],-1.9140625,-0.3046875,9.58203125,[0. 0. 0. 0. 0. 0. 0. 0. 0.]
1742663043080959821,1742663043,70011184,imu_link,-0.01556396484375,0.09832763671875,-0.00103759765625,0.99505615234375,[0. 0. 0. 0. 0. 0. 0. 0. 0.],0.0,0.0,0.0,[0. 0. 0. 0. 0. 0. 0. 0. 0.],-1.9140625,-0.3046875,9.58203125,[0. 0. 0. 0. 0. 0. 0. 0. 0.]
1742663043091951958,1742663043,90050200,imu_link,-0.01556396484375,0.09832763671875,-0.00103759765625,0.99505615234375,[0. 0. 0. 0. 0. 0. 0. 0. 0.],0.0,0.0,0.0,[0. 0. 0. 0. 0. 0. 0. 0. 0.],-1.9140625,-0.3046875,9.58203125,[0. 0. 0. 0. 0. 0. 0. 0. 0.]
1742663043131073538,1742663043,110033364,imu_link,-0.01556396484375,0.09832763671875,-0.00103759765625,0.99505615234375,[0. 0. 0. 0. 0. 0. 0. 0. 0.],0.0,0.0,0.0,[0. 0. 0. 0. 0. 0. 0. 0. 0.],-1.9140625,-0.3046875,9.58203125,[0. 0. 0. 0. 0. 0. 0. 0. 0.]
1742663043134488939,1742663043,132750257,imu_link,-0.01556396484375,0.09832763671875,-0.00103759765625,0.99505615234375,[0. 0. 0. 0. 0. 0. 0. 0. 0.],0.0,0.0,0.0,[0. 0. 0. 0. 0. 0. 0. 0. 0.],-1.9140625,-0.3046875,9.58203125,[0. 0. 0. 0. 0. 0. 0. 0. 0.]
1742663043165085514,1742663043,149926135,imu_link,-0.01556396484375,0.09832763671875,-0.00103759765625,0.99505615234375,[0. 0. 0. 0. 0. 0. 0. 0. 0.],0.0,0.0,0.0,[0. 0. 0. 0. 0. 0. 0. 0. 0.],-1.83984375,-0.34375,9.54296875,[0. 0. 0. 0. 0. 0. 0. 0. 0.]
1742663043171766186,1742663043,169923040,imu_link,-0.01556396484375,0.09832763671875,-0.00103759765625,0.99505615234375,[0. 0. 0. 0. 0. 0. 0. 0. 0.],0.0,0.0,0.0,[0. 0. 0. 0. 0. 0. 0. 0. 0.],-1.83984375,-0.34375,9.54296875,[0. 0. 0. 0. 0. 0. 0. 0. 0.]
1742663043206225982,1742663043,189963075,imu_link,-0.015380859375,0.0982666015625,-0.00067138671875,0.99505615234375,[0. 0. 0. 0. 0. 0. 0. 0. 0.],0.005859375,-0.00390625,0.01171875,[0. 0. 0. 0. 0. 0. 0. 0. 0.],-1.30078125,-0.7265625,9.578125,[0. 0. 0. 0. 0. 0. 0. 0. 0.]
1742663043211646180,1742663043,209924035,imu_link,-0.015380859375,0.0982666015625,-0.00067138671875,0.99505615234375,[0. 0. 0. 0. 0. 0. 0. 0. 0.],0.005859375,-0.00390625,0.01171875,[0. 0. 0. 0. 0. 0. 0. 0. 0.],-1.30078125,-0.7265625,9.578125,[0. 0. 0. 0. 0. 0. 0. 0. 0.]
1742663043240902428,1742663043,230025199,imu_link,-0.015380859375,0.0982666015625,-0.00067138671875,0.99505615234375,[0. 0. 0. 0. 0. 0. 0. 0. 0.],0.01171875,0.001953125,0.12890625,[0. 0. 0. 0. 0. 0. 0. 0. 0.],-0.8046875,-0.8828125,9.65234375,[0. 0. 0. 0. 0. 0. 0. 0. 0.]
1742663043261957657,1742663043,249997770,imu_link,-0.0147705078125,0.09832763671875,0.001953125,0.99505615234375,[0. 0. 0. 0. 0. 0. 0. 0. 0.],0.01171875,0.001953125,0.12890625,[0. 0. 0. 0. 0. 0. 0. 0. 0.],-0.57421875,-0.49609375,9.7265625,[0. 0. 0. 0. 0. 0. 0. 0. 0.]
1742663043272129232,1742663043,270209825,imu_link,-0.0147705078125,0.09832763671875,0.001953125,0.99505615234375,[0. 0. 0. 0. 0. 0. 0. 0. 0.],0.01171875,0.001953125,0.12890625,[0. 0. 0. 0. 0. 0. 0. 0. 0.],-0.57421875,-0.49609375,9.7265625,[0. 0. 0. 0. 0. 0. 0. 0. 0.]
1742663043307008550,1742663043,289939135,imu_link,-0.014892578125,0.098388671875,0.00360107421875,0.99505615234375,[0. 0. 0. 0. 0. 0. 0. 0. 0.],-0.009765625,0.00390625,0.046875,[0. 0. 0. 0. 0. 0. 0. 0. 0.],-0.3046875,-0.4609375,9.6875,[0. 0. 0. 0. 0. 0. 0. 0. 0.]
1742663043311653463,1742663043,309926280,imu_link,-0.014892578125,0.098388671875,0.00360107421875,0.99505615234375,[0. 0. 0. 0. 0. 0. 0. 0. 0.],-0.009765625,0.00390625,0.046875,[0. 0. 0. 0. 0. 0. 0. 0. 0.],-0.3046875,-0.4609375,9.6875,[0. 0. 0. 0. 0. 0. 0. 0. 0.]
1742663043341117991,1742663043,330038815,imu_link,-0.014892578125,0.098388671875,0.00360107421875,0.99505615234375,[0. 0. 0. 0. 0. 0. 0. 0. 0.],-0.01953125,0.005859375,0.107421875,[0. 0. 0. 0. 0. 0. 0. 0. 0.],-0.23046875,-0.57421875,9.6484375,[0. 0. 0. 0. 0. 0. 0. 0. 0.]
1742663043361743605,1742663043,349981997,imu_link,-0.01513671875,0.09844970703125,0.0059814453125,0.9949951171875,[0. 0. 0. 0. 0. 0. 0. 0. 0.],-0.01953125,0.005859375,0.107421875,[0. 0. 0. 0. 0. 0. 0. 0. 0.],-0.84375,-0.19140625,9.5390625,[0. 0. 0. 0. 0. 0. 0. 0. 0.]
1742663043371784418,1742663043,370015773,imu_link,-0.01513671875,0.09844970703125,0.0059814453125,0.9949951171875,[0. 0. 0. 0. 0. 0. 0. 0. 0.],-0.01953125,0.005859375,0.107421875,[0. 0. 0. 0. 0. 0. 0. 0. 0.],-0.84375,-0.19140625,9.5390625,[0. 0. 0. 0. 0. 0. 0. 0. 0.]
1742663043406262011,1742663043,390016363,imu_link,-0.0152587890625,0.09869384765625,0.0087890625,0.99493408203125,[0. 0. 0. 0. 0. 0. 0. 0. 0.],-0.005859375,0.01953125,0.1015625,[0. 0. 0. 0. 0. 0. 0. 0. 0.],-1.80078125,0.0390625,9.65234375,[0. 0. 0. 0. 0. 0. 0. 0. 0.]
1742663043417371371,1742663043,409943730,imu_link,-0.0152587890625,0.09869384765625,0.0087890625,0.99493408203125,[0. 0. 0. 0. 0. 0. 0. 0. 0.],-0.005859375,0.01953125,0.1015625,[0. 0. 0. 0. 0. 0. 0. 0. 0.],-2.14453125,-0.11328125,9.4609375,[0. 0. 0. 0. 0. 0. 0. 0. 0.]
1742663043437417702,1742663043,429997264,imu_link,-0.0152587890625,0.09869384765625,0.0087890625,0.99493408203125,[0. 0. 0. 0. 0. 0. 0. 0. 0.],-0.0078125,0.01171875,0.0703125,[0. 0. 0. 0. 0. 0. 0. 0. 0.],-2.14453125,-0.11328125,9.4609375,[0. 0. 0. 0. 0. 0. 0. 0. 0.]
1742663043462856657,1742663043,450065614,imu_link,-0.015380859375,0.0987548828125,0.01055908203125,0.99493408203125,[0. 0. 0. 0. 0. 0. 0. 0. 0.],-0.0078125,0.01171875,0.0703125,[0. 0. 0. 0. 0. 0. 0. 0. 0.],-2.22265625,-0.3046875,9.578125,[0. 0. 0. 0. 0. 0. 0. 0. 0.]
1742663043472013462,1742663043,469949777,imu_link,-0.015380859375,0.0987548828125,0.01055908203125,0.99493408203125,[0. 0. 0. 0. 0. 0. 0. 0. 0.],-0.0078125,0.01171875,0.0703125,[0. 0. 0. 0. 0. 0. 0. 0. 0.],-2.22265625,-0.3046875,9.578125,[0. 0. 0. 0. 0. 0. 0. 0. 0.]
1742663043491857643,1742663043,490007256,imu_link,-0.015380859375,0.0987548828125,0.01055908203125,0.99493408203125,[0. 0. 0. 0. 0. 0. 0. 0. 0.],0.0,0.0078125,0.06640625,[0. 0. 0. 0. 0. 0. 0. 0. 0.],-2.3359375,-0.23046875,9.46484375,[0. 0. 0. 0. 0. 0. 0. 0. 0.]
1742663043516904279,1742663043,509933956,imu_link,-0.01531982421875,0.0987548828125,0.01220703125,0.99493408203125,[0. 0. 0. 0. 0. 0. 0. 0. 0.],0.0,0.0078125,0.06640625,[0. 0. 0. 0. 0. 0. 0. 0. 0.],-2.52734375,-0.078125,9.65234375,[0. 0. 0. 0. 0. 0. 0. 0. 0.]
1742663043541221520,1742663043,530017380,imu_link,-0.01531982421875,0.0987548828125,0.01220703125,0.99493408203125,[0. 0. 0. 0. 0. 0. 0. 0. 0.],0.001953125,0.00390625,0.03515625,[0. 0. 0. 0. 0. 0. 0. 0. 0.],-2.52734375,-0.078125,9.65234375,[0. 0. 0. 0. 0. 0. 0. 0. 0.]
1742663043555956136,1742663043,552456474,imu_link,-0.01531982421875,0.09869384765625,0.01324462890625,0.99493408203125,[0. 0. 0. 0. 0. 0. 0. 0. 0.],0.001953125,0.00390625,0.03515625,[0. 0. 0. 0. 0. 0. 0. 0. 0.],-2.64453125,-0.078125,9.4609375,[0. 0. 0. 0. 0. 0. 0. 0. 0.]
1742663043580555916,1742663043,570018819,imu_link,-0.01531982421875,0.09869384765625,0.01324462890625,0.99493408203125,[0. 0. 0. 0. 0. 0. 0. 0. 0.],0.0,0.00390625,0.017578125,[0. 0. 0. 0. 0. 0. 0. 0. 0.],-2.52734375,-0.11328125,9.578125,[0. 0. 0. 0. 0. 0. 0. 0. 0.]
1742663043591850444,1742663043,589977816,imu_link,-0.01531982421875,0.09869384765625,0.01324462890625,0.99493408203125,[0. 0. 0. 0. 0. 0. 0. 0. 0.],0.0,0.00390625,0.017578125,[0. 0. 0. 0. 0. 0. 0. 0. 0.],-2.52734375,-0.11328125,9.578125,[0. 0. 0. 0. 0. 0. 0. 0. 0.]
1742663043611628125,1742663043,609921146,imu_link,-0.01519775390625,0.09869384765625,0.01373291015625,0.99493408203125,[0. 0. 0. 0. 0. 0. 0. 0. 0.],0.0,0.00390625,0.017578125,[0. 0. 0. 0. 0. 0. 0. 0. 0.],-2.4140625,-0.23046875,9.50390625,[0. 0. 0. 0. 0. 0. 0. 0. 0.]
1742663043640600722,1742663043,630040219,imu_link,-0.01519775390625,0.09869384765625,0.01373291015625,0.99493408203125,[0. 0. 0. 0. 0. 0. 0. 0. 0.],0.00390625,0.001953125,0.0234375,[0. 0. 0. 0. 0. 0. 0. 0. 0.],-2.296875,-0.34375,9.609375,[0. 0. 0. 0. 0. 0. 0. 0. 0.]
1742663043662124567,1742663043,650015605,imu_link,-0.01507568359375,0.0986328125,0.01434326171875,0.99493408203125,[0. 0. 0. 0. 0. 0. 0. 0. 0.],0.00390625,0.001953125,0.0234375,[0. 0. 0. 0. 0. 0. 0. 0. 0.],-2.296875,-0.34375,9.609375,[0. 0. 0. 0. 0. 0. 0. 0. 0.]
1742663043675331669,1742663043,669950175,imu_link,-0.01507568359375,0.0986328125,0.01434326171875,0.99493408203125,[0. 0. 0. 0. 0. 0. 0. 0. 0.],0.00390625,0.001953125,0.0234375,[0. 0. 0. 0. 0. 0. 0. 0. 0.],-2.14453125,-0.3046875,9.54296875,[0. 0. 0. 0. 0. 0. 0. 0. 0.]
1742663043691653373,1742663043,689943506,imu_link,-0.01507568359375,0.0986328125,0.01434326171875,0.99493408203125,[0. 0. 0. 0. 0. 0. 0. 0. 0.],-0.005859375,0.00390625,0.005859375,[0. 0. 0. 0. 0. 0. 0. 0. 0.],-2.14453125,-0.3046875,9.54296875,[0. 0. 0. 0. 0. 0. 0. 0. 0.]
1742663043711710723,1742663043,709949318,imu_link,-0.01513671875,0.0985107421875,0.0145263671875,0.99493408203125,[0. 0. 0. 0. 0. 0. 0. 0. 0.],-0.005859375,0.00390625,0.005859375,[0. 0. 0. 0. 0. 0. 0. 0. 0.],-1.9921875,-0.15234375,9.578125,[0. 0. 0. 0. 0. 0. 0. 0. 0.]
1742663043740542227,1742663043,730020260,imu_link,-0.01513671875,0.0985107421875,0.0145263671875,0.99493408203125,[0. 0. 0. 0. 0. 0. 0. 0. 0.],0.0,0.00390625,-0.01171875,[0. 0. 0. 0. 0. 0. 0. 0. 0.],-1.72265625,-0.078125,9.58203125,[0. 0. 0. 0. 0. 0. 0. 0. 0.]
1742663043766029015,1742663043,749963442,imu_link,-0.01519775390625,0.098388671875,0.01422119140625,0.99493408203125,[0. 0. 0. 0. 0. 0. 0. 0. 0.],0.0,0.00390625,-0.01171875,[0. 0. 0. 0. 0. 0. 0. 0. 0.],-1.4921875,-0.11328125,9.578125,[0. 0. 0. 0. 0. 0. 0. 0. 0.]
1742663043775438564,1742663043,770001866,imu_link,-0.01519775390625,0.098388671875,0.01422119140625,0.99493408203125,[0. 0. 0. 0. 0. 0. 0. 0. 0.],0.0,0.00390625,-0.01171875,[0. 0. 0. 0. 0. 0. 0. 0. 0.],-1.4921875,-0.11328125,9.578125,[0. 0. 0. 0. 0. 0. 0. 0. 0.]
1742663043805847082,1742663043,789927029,imu_link,-0.0152587890625,0.09820556640625,0.0137939453125,0.99493408203125,[0. 0. 0. 0. 0. 0. 0. 0. 0.],0.005859375,0.00390625,-0.015625,[0. 0. 0. 0. 0. 0. 0. 0. 0.],-1.45703125,-0.11328125,9.6484375,[0. 0. 0. 0. 0. 0. 0. 0. 0.]
1742663043811705691,1742663043,809935804,imu_link,-0.0152587890625,0.09820556640625,0.0137939453125,0.99493408203125,[0. 0. 0. 0. 0. 0. 0. 0. 0.],0.005859375,0.00390625,-0.015625,[0. 0. 0. 0. 0. 0. 0. 0. 0.],-1.45703125,-0.11328125,9.6484375,[0. 0. 0. 0. 0. 0. 0. 0. 0.]
1742663043839697502,1742663043,829959283,imu_link,-0.0152587890625,0.09820556640625,0.0137939453125,0.99493408203125,[0. 0. 0. 0. 0. 0. 0. 0. 0.],0.0078125,0.0078125,-0.046875,[0. 0. 0. 0. 0. 0. 0. 0. 0.],-1.53125,-0.3046875,9.58203125,[0. 0. 0. 0. 0. 0. 0. 0. 0.]
1742663043864654359,1742663043,850051318,imu_link,-0.015380859375,0.09814453125,0.01275634765625,0.9949951171875,[0. 0. 0. 0. 0. 0. 0. 0. 0.],0.0078125,0.0078125,-0.046875,[0. 0. 0. 0. 0. 0. 0. 0. 0.],-1.5703125,-0.4609375,9.69140625,[0. 0. 0. 0. 0. 0. 0. 0. 0.]
1742663043876466356,1742663043,870143409,imu_link,-0.015380859375,0.09814453125,0.01275634765625,0.9949951171875,[0. 0. 0. 0. 0. 0. 0. 0. 0.],0.0078125,0.0078125,-0.046875,[0. 0. 0. 0. 0. 0. 0. 0. 0.],-1.5703125,-0.4609375,9.69140625,[0. 0. 0. 0. 0. 0. 0. 0. 0.]
1742663043905829272,1742663043,889974331,imu_link,-0.01556396484375,0.09820556640625,0.01226806640625,0.9949951171875,[0. 0. 0. 0. 0. 0. 0. 0. 0.],0.0,0.009765625,-0.01171875,[0. 0. 0. 0. 0. 0. 0. 0. 0.],-1.72265625,-0.53515625,9.46484375,[0. 0. 0. 0. 0. 0. 0. 0. 0.]
1742663043911715566,1742663043,909940791,imu_link,-0.01556396484375,0.09820556640625,0.01226806640625,0.9949951171875,[0. 0. 0. 0. 0. 0. 0. 0. 0.],0.0,0.009765625,-0.01171875,[0. 0. 0. 0. 0. 0. 0. 0. 0.],-1.72265625,-0.53515625,9.46484375,[0. 0. 0. 0. 0. 0. 0. 0. 0.]
1742663043940474606,1742663043,930031289,imu_link,-0.01556396484375,0.09820556640625,0.01226806640625,0.9949951171875,[0. 0. 0. 0. 0. 0. 0. 0. 0.],-0.00390625,0.009765625,-0.015625,[0. 0. 0. 0. 0. 0. 0. 0. 0.],-1.9921875,-0.421875,9.609375,[0. 0. 0. 0. 0. 0. 0. 0. 0.]
1742663043963385760,1742663043,949988656,imu_link,-0.0157470703125,0.09820556640625,0.01190185546875,0.9949951171875,[0. 0. 0. 0. 0. 0. 0. 0. 0.],-0.00390625,0.009765625,-0.015625,[0. 0. 0. 0. 0. 0. 0. 0. 0.],-2.10546875,-0.34375,9.58203125,[0. 0. 0. 0. 0. 0. 0. 0. 0.]
1742663043975959393,1742663043,969929449,imu_link,-0.0157470703125,0.09820556640625,0.01190185546875,0.9949951171875,[0. 0. 0. 0. 0. 0. 0. 0. 0.],-0.00390625,0.009765625,-0.015625,[0. 0. 0. 0. 0. 0. 0. 0. 0.],-2.10546875,-0.34375,9.58203125,[0. 0. 0. 0. 0. 0. 0. 0. 0.]
1742663044006259058,1742663043,990016058,imu_link,-0.015869140625,0.09814453125,0.01171875,0.9949951171875,[0. 0. 0. 0. 0. 0. 0. 0. 0.],0.00390625,0.00390625,-0.001953125,[0. 0. 0. 0. 0. 0. 0. 0. 0.],-2.14453125,-0.3828125,9.5,[0. 0. 0. 0. 0. 0. 0. 0. 0.]
1742663044016592023,1742663044,9920610,imu_link,-0.015869140625,0.09814453125,0.01171875,0.9949951171875,[0. 0. 0. 0. 0. 0. 0. 0. 0.],0.00390625,0.00390625,-0.001953125,[0. 0. 0. 0. 0. 0. 0. 0. 0.],-2.22265625,-0.3046875,9.5390625,[0. 0. 0. 0. 0. 0. 0. 0. 0.]
1742663044036626594,1742663044,29993645,imu_link,-0.015869140625,0.09814453125,0.01171875,0.9949951171875,[0. 0. 0. 0. 0. 0. 0. 0. 0.],0.005859375,-0.001953125,-0.005859375,[0. 0. 0. 0. 0. 0. 0. 0. 0.],-2.22265625,-0.3046875,9.5390625,[0. 0. 0. 0. 0. 0. 0. 0. 0.]
1742663044063384653,1742663044,49934345,imu_link,-0.015869140625,0.0980224609375,0.01165771484375,0.9949951171875,[0. 0. 0. 0. 0. 0. 0. 0. 0.],0.005859375,-0.001953125,-0.005859375,[0. 0. 0. 0. 0. 0. 0. 0. 0.],-2.22265625,-0.26953125,9.58203125,[0. 0. 0. 0. 0. 0. 0. 0. 0.]
1742663044079642227,1742663044,69931916,imu_link,-0.015869140625,0.0980224609375,0.01165771484375,0.9949951171875,[0. 0. 0. 0. 0. 0. 0. 0. 0.],0.005859375,0.001953125,-0.013671875,[0. 0. 0. 0. 0. 0. 0. 0. 0.],-2.22265625,-0.26953125,9.58203125,[0. 0. 0. 0. 0. 0. 0. 0. 0.]
1742663044101501852,1742663044,89999562,imu_link,-0.01593017578125,0.097900390625,0.01129150390625,0.9949951171875,[0. 0. 0. 0. 0. 0. 0. 0. 0.],0.005859375,0.001953125,-0.013671875,[0. 0. 0. 0. 0. 0. 0. 0. 0.],-2.10546875,-0.34375,9.54296875,[0. 0. 0. 0. 0. 0. 0. 0. 0.]
1742663044117167235,1742663044,110151912,imu_link,-0.01593017578125,0.097900390625,0.01129150390625,0.9949951171875,[0. 0. 0. 0. 0. 0. 0. 0. 0.],0.005859375,0.001953125,-0.013671875,[0. 0. 0. 0. 0. 0. 0. 0. 0.],-1.9921875,-0.3828125,9.5390625,[0. 0. 0. 0. 0. 0. 0. 0. 0.]
1742663044141022175,1742663044,130304503,imu_link,-0.01593017578125,0.097900390625,0.01129150390625,0.9949951171875,[0. 0. 0. 0. 0. 0. 0. 0. 0.],0.009765625,0.00390625,0.00390625,[0. 0. 0. 0. 0. 0. 0. 0. 0.],-1.9921875,-0.26953125,9.65234375,[0. 0. 0. 0. 0. 0. 0. 0. 0.]
1742663044156136628,1742663044,152736393,imu_link,-0.01593017578125,0.09783935546875,0.01129150390625,0.9949951171875,[0. 0. 0. 0. 0. 0. 0. 0. 0.],0.009765625,0.00390625,0.00390625,[0. 0. 0. 0. 0. 0. 0. 0. 0.],-1.9921875,-0.26953125,9.65234375,[0. 0. 0. 0. 0. 0. 0. 0. 0.]
1742663044179805769,1742663044,170043606,imu_link,-0.01593017578125,0.09783935546875,0.01129150390625,0.9949951171875,[0. 0. 0. 0. 0. 0. 0. 0. 0.],0.009765625,0.005859375,-0.0078125,[0. 0. 0. 0. 0. 0. 0. 0. 0.],-1.80078125,-0.3046875,9.50390625,[0. 0. 0. 0. 0. 0. 0. 0. 0.]
1742663044206598069,1742663044,190001344,imu_link,-0.0159912109375,0.09783935546875,0.01104736328125,0.9949951171875,[0. 0. 0. 0. 0. 0. 0. 0. 0.],0.009765625,0.005859375,-0.0078125,[0. 0. 0. 0. 0. 0. 0. 0. 0.],-1.80078125,-0.3046875,9.50390625,[0. 0. 0. 0. 0. 0. 0. 0. 0.]
1742663044211601689,1742663044,209917859,imu_link,-0.0159912109375,0.09783935546875,0.01104736328125,0.9949951171875,[0. 0. 0. 0. 0. 0. 0. 0. 0.],0.009765625,0.005859375,-0.0078125,[0. 0. 0. 0. 0. 0. 0. 0. 0.],-1.68359375,-0.26953125,9.61328125,[0. 0. 0. 0. 0. 0. 0. 0. 0.]
1742663044239749482,1742663044,229941282,imu_link,-0.0159912109375,0.09783935546875,0.01104736328125,0.9949951171875,[0. 0. 0. 0. 0. 0. 0. 0. 0.],0.00390625,0.0078125,-0.00390625,[0. 0. 0. 0. 0. 0. 0. 0. 0.],-1.80078125,-0.23046875,9.58203125,[0. 0. 0. 0. 0. 0. 0. 0. 0.]
1742663044253595794,1742663044,250609340,imu_link,-0.01605224609375,0.09783935546875,0.01092529296875,0.9949951171875,[0. 0. 0. 0. 0. 0. 0. 0. 0.],0.00390625,0.0078125,-0.00390625,[0. 0. 0. 0. 0. 0. 0. 0. 0.],-1.80078125,-0.23046875,9.58203125,[0. 0. 0. 0. 0. 0. 0. 0. 0.]
1742663044281058877,1742663044,270168519,imu_link,-0.01605224609375,0.09783935546875,0.01092529296875,0.9949951171875,[0. 0. 0. 0. 0. 0. 0. 0. 0.],0.0,0.001953125,-0.017578125,[0. 0. 0. 0. 0. 0. 0. 0. 0.],-1.9140625,-0.3046875,9.54296875,[0. 0. 0. 0. 0. 0. 0. 0. 0.]
1742663044304048679,1742663044,289923291,imu_link,-0.0162353515625,0.0977783203125,0.01055908203125,0.9949951171875,[0. 0. 0. 0. 0. 0. 0. 0. 0.],0.0,0.001953125,-0.017578125,[0. 0. 0. 0. 0. 0. 0. 0. 0.],-1.9140625,-0.3046875,9.54296875,[0. 0. 0. 0. 0. 0. 0. 0. 0.]
1742663044312388126,1742663044,309977678,imu_link,-0.0162353515625,0.0977783203125,0.01055908203125,0.9949951171875,[0. 0. 0. 0. 0. 0. 0. 0. 0.],0.0,0.001953125,-0.017578125,[0. 0. 0. 0. 0. 0. 0. 0. 0.],-1.953125,-0.34375,9.61328125,[0. 0. 0. 0. 0. 0. 0. 0. 0.]
1742663044339642152,1742663044,329944064,imu_link,-0.0162353515625,0.0977783203125,0.01055908203125,0.9949951171875,[0. 0. 0. 0. 0. 0. 0. 0. 0.],0.0,0.005859375,0.001953125,[0. 0. 0. 0. 0. 0. 0. 0. 0.],-2.03125,-0.3828125,9.578125,[0. 0. 0. 0. 0. 0. 0. 0. 0.]
1742663044365522388,1742663044,349980024,imu_link,-0.016357421875,0.0980224609375,0.010498046875,0.9949951171875,[0. 0. 0. 0. 0. 0. 0. 0. 0.],0.0,0.005859375,0.001953125,[0. 0. 0. 0. 0. 0. 0. 0. 0.],-2.10546875,-0.3046875,9.5390625,[0. 0. 0. 0. 0. 0. 0. 0. 0.]
1742663044377289717,1742663044,369915187,imu_link,-0.016357421875,0.0980224609375,0.010498046875,0.9949951171875,[0. 0. 0. 0. 0. 0. 0. 0. 0.],-0.005859375,0.001953125,-0.01171875,[0. 0. 0. 0. 0. 0. 0. 0. 0.],-2.10546875,-0.3046875,9.5390625,[0. 0. 0. 0. 0. 0. 0. 0. 0.]
1742663044403591401,1742663044,389929092,imu_link,-0.01654052734375,0.098388671875,0.01025390625,0.99493408203125,[0. 0. 0. 0. 0. 0. 0. 0. 0.],-0.005859375,0.001953125,-0.01171875,[0. 0. 0. 0. 0. 0. 0. 0. 0.],-2.0703125,-0.26953125,9.58203125,[0. 0. 0. 0. 0. 0. 0. 0. 0.]
1742663044412507705,1742663044,409991571,imu_link,-0.01654052734375,0.098388671875,0.01025390625,0.99493408203125,[0. 0. 0. 0. 0. 0. 0. 0. 0.],-0.005859375,0.001953125,-0.01171875,[0. 0. 0. 0. 0. 0. 0. 0. 0.],-2.0703125,-0.26953125,9.58203125,[0. 0. 0. 0. 0. 0. 0. 0. 0.]
1742663044440457311,1742663044,430021105,imu_link,-0.01654052734375,0.098388671875,0.01025390625,0.99493408203125,[0. 0. 0. 0. 0. 0. 0. 0. 0.],-0.005859375,0.001953125,-0.0078125,[0. 0. 0. 0. 0. 0. 0. 0. 0.],-1.9921875,-0.3046875,9.58203125,[0. 0. 0. 0. 0. 0. 0. 0. 0.]
1742663044459032777,1742663044,451765489,imu_link,-0.0167236328125,0.0987548828125,0.01007080078125,0.99493408203125,[0. 0. 0. 0. 0. 0. 0. 0. 0.],-0.005859375,0.001953125,-0.0078125,[0. 0. 0. 0. 0. 0. 0. 0. 0.],-1.953125,-0.34375,9.5390625,[0. 0. 0. 0. 0. 0. 0. 0. 0.]
1742663044477360240,1742663044,469999970,imu_link,-0.0167236328125,0.0987548828125,0.01007080078125,0.99493408203125,[0. 0. 0. 0. 0. 0. 0. 0. 0.],-0.00390625,0.00390625,-0.0078125,[0. 0. 0. 0. 0. 0. 0. 0. 0.],-1.953125,-0.34375,9.5390625,[0. 0. 0. 0. 0. 0. 0. 0. 0.]
1742663044504401024,1742663044,490002615,imu_link,-0.01690673828125,0.09918212890625,0.00982666015625,0.994873046875,[0. 0. 0. 0. 0. 0. 0. 0. 0.],-0.00390625,0.00390625,-0.0078125,[0. 0. 0. 0. 0. 0. 0. 0. 0.],-1.9921875,-0.34375,9.65234375,[0. 0. 0. 0. 0. 0. 0. 0. 0.]
1742663044512255429,1742663044,509918982,imu_link,-0.01690673828125,0.09918212890625,0.00982666015625,0.994873046875,[0. 0. 0. 0. 0. 0. 0. 0. 0.],-0.00390625,0.00390625,-0.0078125,[0. 0. 0. 0. 0. 0. 0. 0. 0.],-1.9921875,-0.34375,9.65234375,[0. 0. 0. 0. 0. 0. 0. 0. 0.]
1742663044537307416,1742663044,530013072,imu_link,-0.01690673828125,0.09918212890625,0.00982666015625,0.994873046875,[0. 0. 0. 0. 0. 0. 0. 0. 0.],0.0,0.005859375,0.0,[0. 0. 0. 0. 0. 0. 0. 0. 0.],-1.9140625,-0.421875,9.54296875,[0. 0. 0. 0. 0. 0. 0. 0. 0.]
1742663044564884112,1742663044,549964958,imu_link,-0.01702880859375,0.099609375,0.009765625,0.99481201171875,[0. 0. 0. 0. 0. 0. 0. 0. 0.],0.0,0.005859375,0.0,[0. 0. 0. 0. 0. 0. 0. 0. 0.],-1.87890625,-0.34375,9.50390625,[0. 0. 0. 0. 0. 0. 0. 0. 0.]
1742663044577310577,1742663044,569933436,imu_link,-0.01702880859375,0.099609375,0.009765625,0.99481201171875,[0. 0. 0. 0. 0. 0. 0. 0. 0.],-0.00390625,0.00390625,0.0,[0. 0. 0. 0. 0. 0. 0. 0. 0.],-1.87890625,-0.34375,9.50390625,[0. 0. 0. 0. 0. 0. 0. 0. 0.]
1742663044602817976,1742663044,590069323,imu_link,-0.01715087890625,0.09991455078125,0.009765625,0.99481201171875,[0. 0. 0. 0. 0. 0. 0. 0. 0.],-0.00390625,0.00390625,0.0,[0. 0. 0. 0. 0. 0. 0. 0. 0.],-1.9140625,-0.3046875,9.58203125,[0. 0. 0. 0. 0. 0. 0. 0. 0.]
1742663044617556314,1742663044,609960245,imu_link,-0.01715087890625,0.09991455078125,0.009765625,0.99481201171875,[0. 0. 0. 0. 0. 0. 0. 0. 0.],-0.00390625,0.00390625,0.0,[0. 0. 0. 0. 0. 0. 0. 0. 0.],-1.9140625,-0.3046875,9.58203125,[0. 0. 0. 0. 0. 0. 0. 0. 0.]
1742663044638087853,1742663044,630020576,imu_link,-0.01715087890625,0.09991455078125,0.009765625,0.99481201171875,[0. 0. 0. 0. 0. 0. 0. 0. 0.],-0.005859375,0.005859375,-0.0078125,[0. 0. 0. 0. 0. 0. 0. 0. 0.],-1.953125,-0.34375,9.578125,[0. 0. 0. 0. 0. 0. 0. 0. 0.]
1742663044665475492,1742663044,649965739,imu_link,-0.01727294921875,0.10015869140625,0.00958251953125,0.9947509765625,[0. 0. 0. 0. 0. 0. 0. 0. 0.],-0.005859375,0.005859375,-0.0078125,[0. 0. 0. 0. 0. 0. 0. 0. 0.],-1.953125,-0.34375,9.578125,[0. 0. 0. 0. 0. 0. 0. 0. 0.]
1742663044680352146,1742663044,669917032,imu_link,-0.01727294921875,0.10015869140625,0.00958251953125,0.9947509765625,[0. 0. 0. 0. 0. 0. 0. 0. 0.],-0.005859375,0.00390625,-0.001953125,[0. 0. 0. 0. 0. 0. 0. 0. 0.],-1.9921875,-0.3046875,9.58203125,[0. 0. 0. 0. 0. 0. 0. 0. 0.]
1742663044702638942,1742663044,689958696,imu_link,-0.01739501953125,0.10040283203125,0.009521484375,0.9947509765625,[0. 0. 0. 0. 0. 0. 0. 0. 0.],-0.005859375,0.00390625,-0.001953125,[0. 0. 0. 0. 0. 0. 0. 0. 0.],-1.9921875,-0.3046875,9.58203125,[0. 0. 0. 0. 0. 0. 0. 0. 0.]
1742663044713552911,1742663044,709931471,imu_link,-0.01739501953125,0.10040283203125,0.009521484375,0.9947509765625,[0. 0. 0. 0. 0. 0. 0. 0. 0.],-0.005859375,0.00390625,-0.001953125,[0. 0. 0. 0. 0. 0. 0. 0. 0.],-2.0703125,-0.3046875,9.578125,[0. 0. 0. 0. 0. 0. 0. 0. 0.]
1742663044749956077,1742663044,729955931,imu_link,-0.0174560546875,0.1005859375,0.00933837890625,0.9947509765625,[0. 0. 0. 0. 0. 0. 0. 0. 0.],-0.001953125,0.00390625,-0.005859375,[0. 0. 0. 0. 0. 0. 0. 0. 0.],-2.0703125,-0.3046875,9.578125,[0. 0. 0. 0. 0. 0. 0. 0. 0.]
1742663044756267949,1742663044,752918678,imu_link,-0.0174560546875,0.1005859375,0.00933837890625,0.9947509765625,[0. 0. 0. 0. 0. 0. 0. 0. 0.],-0.001953125,0.00390625,-0.005859375,[0. 0. 0. 0. 0. 0. 0. 0. 0.],-2.03125,-0.34375,9.5390625,[0. 0. 0. 0. 0. 0. 0. 0. 0.]
1742663044780973174,1742663044,770101223,imu_link,-0.0174560546875,0.1005859375,0.00933837890625,0.9947509765625,[0. 0. 0. 0. 0. 0. 0. 0. 0.],-0.00390625,0.001953125,0.00390625,[0. 0. 0. 0. 0. 0. 0. 0. 0.],-1.953125,-0.3828125,9.578125,[0. 0. 0. 0. 0. 0. 0. 0. 0.]
1742663044807207672,1742663044,789953163,imu_link,-0.017578125,0.1007080078125,0.00933837890625,0.99468994140625,[0. 0. 0. 0. 0. 0. 0. 0. 0.],-0.00390625,0.001953125,0.00390625,[0. 0. 0. 0. 0. 0. 0. 0. 0.],-1.953125,-0.3828125,9.578125,[0. 0. 0. 0. 0. 0. 0. 0. 0.]
1742663044813357914,1742663044,809921438,imu_link,-0.017578125,0.1007080078125,0.00933837890625,0.99468994140625,[0. 0. 0. 0. 0. 0. 0. 0. 0.],-0.00390625,0.001953125,0.00390625,[0. 0. 0. 0. 0. 0. 0. 0. 0.],-1.9921875,-0.3046875,9.58203125,[0. 0. 0. 0. 0. 0. 0. 0. 0.]
1742663044839693450,1742663044,829946639,imu_link,-0.017578125,0.1007080078125,0.00933837890625,0.99468994140625,[0. 0. 0. 0. 0. 0. 0. 0. 0.],-0.00390625,0.00390625,-0.00390625,[0. 0. 0. 0. 0. 0. 0. 0. 0.],-1.9921875,-0.3046875,9.54296875,[0. 0. 0. 0. 0. 0. 0. 0. 0.]
1742663044855122739,1742663044,851782838,imu_link,-0.01776123046875,0.100830078125,0.00921630859375,0.99468994140625,[0. 0. 0. 0. 0. 0. 0. 0. 0.],-0.00390625,0.00390625,-0.00390625,[0. 0. 0. 0. 0. 0. 0. 0. 0.],-1.9921875,-0.3046875,9.54296875,[0. 0. 0. 0. 0. 0. 0. 0. 0.]
1742663044881970002,1742663044,869986263,imu_link,-0.01776123046875,0.100830078125,0.00921630859375,0.99468994140625,[0. 0. 0. 0. 0. 0. 0. 0. 0.],-0.001953125,0.00390625,-0.001953125,[0. 0. 0. 0. 0. 0. 0. 0. 0.],-1.9140625,-0.34375,9.578125,[0. 0. 0. 0. 0. 0. 0. 0. 0.]
1742663044904195204,1742663044,889939593,imu_link,-0.0179443359375,0.1009521484375,0.0091552734375,0.99468994140625,[0. 0. 0. 0. 0. 0. 0. 0. 0.],-0.001953125,0.00390625,-0.001953125,[0. 0. 0. 0. 0. 0. 0. 0. 0.],-1.953125,-0.34375,9.61328125,[0. 0. 0. 0. 0. 0. 0. 0. 0.]
1742663044913324343,1742663044,909937442,imu_link,-0.0179443359375,0.1009521484375,0.0091552734375,0.99468994140625,[0. 0. 0. 0. 0. 0. 0. 0. 0.],-0.001953125,0.00390625,-0.001953125,[0. 0. 0. 0. 0. 0. 0. 0. 0.],-1.953125,-0.34375,9.61328125,[0. 0. 0. 0. 0. 0. 0. 0. 0.]
1742663044950511256,1742663044,929942884,imu_link,-0.01812744140625,0.1011962890625,0.009033203125,0.99468994140625,[0. 0. 0. 0. 0. 0. 0. 0. 0.],-0.0078125,0.0078125,-0.00390625,[0. 0. 0. 0. 0. 0. 0. 0. 0.],-1.9921875,-0.34375,9.5,[0. 0. 0. 0. 0. 0. 0. 0. 0.]
1742663044955802638,1742663044,953089409,imu_link,-0.01812744140625,0.1011962890625,0.009033203125,0.99468994140625,[0. 0. 0. 0. 0. 0. 0. 0. 0.],-0.0078125,0.0078125,-0.00390625,[0. 0. 0. 0. 0. 0. 0. 0. 0.],-1.9921875,-0.34375,9.5,[0. 0. 0. 0. 0. 0. 0. 0. 0.]
1742663044977734449,1742663044,969924341,imu_link,-0.01812744140625,0.1011962890625,0.009033203125,0.99468994140625,[0. 0. 0. 0. 0. 0. 0. 0. 0.],-0.005859375,0.00390625,0.0,[0. 0. 0. 0. 0. 0. 0. 0. 0.],-1.9921875,-0.34375,9.65234375,[0. 0. 0. 0. 0. 0. 0. 0. 0.]
1742663045004150097,1742663044,989955227,imu_link,-0.01824951171875,0.101318359375,0.009033203125,0.99462890625,[0. 0. 0. 0. 0. 0. 0. 0. 0.],-0.005859375,0.00390625,0.0,[0. 0. 0. 0. 0. 0. 0. 0. 0.],-1.953125,-0.421875,9.46484375,[0. 0. 0. 0. 0. 0. 0. 0. 0.]
1742663045013231587,1742663045,9920131,imu_link,-0.01824951171875,0.101318359375,0.009033203125,0.99462890625,[0. 0. 0. 0. 0. 0. 0. 0. 0.],-0.005859375,0.00390625,0.0,[0. 0. 0. 0. 0. 0. 0. 0. 0.],-1.953125,-0.421875,9.46484375,[0. 0. 0. 0. 0. 0. 0. 0. 0.]
1742663045048981431,1742663045,29956721,imu_link,-0.01837158203125,0.101318359375,0.00909423828125,0.99462890625,[0. 0. 0. 0. 0. 0. 0. 0. 0.],-0.005859375,-0.001953125,0.00390625,[0. 0. 0. 0. 0. 0. 0. 0. 0.],-1.9921875,-0.3828125,9.578125,[0. 0. 0. 0. 0. 0. 0. 0. 0.]
1742663045057673121,1742663045,51123062,imu_link,-0.01837158203125,0.101318359375,0.00909423828125,0.99462890625,[0. 0. 0. 0. 0. 0. 0. 0. 0.],-0.005859375,-0.001953125,0.00390625,[0. 0. 0. 0. 0. 0. 0. 0. 0.],-2.10546875,-0.26953125,9.58203125,[0. 0. 0. 0. 0. 0. 0. 0. 0.]
1742663045077129317,1742663045,69978585,imu_link,-0.01837158203125,0.101318359375,0.00909423828125,0.99462890625,[0. 0. 0. 0. 0. 0. 0. 0. 0.],-0.001953125,0.00390625,-0.0078125,[0. 0. 0. 0. 0. 0. 0. 0. 0.],-2.10546875,-0.26953125,9.58203125,[0. 0. 0. 0. 0. 0. 0. 0. 0.]
1742663045104296768,1742663045,90021434,imu_link,-0.0184326171875,0.10137939453125,0.00897216796875,0.99462890625,[0. 0. 0. 0. 0. 0. 0. 0. 0.],-0.001953125,0.00390625,-0.0078125,[0. 0. 0. 0. 0. 0. 0. 0. 0.],-2.03125,-0.26953125,9.578125,[0. 0. 0. 0. 0. 0. 0. 0. 0.]
1742663045113246201,1742663045,109916671,imu_link,-0.0184326171875,0.10137939453125,0.00897216796875,0.99462890625,[0. 0. 0. 0. 0. 0. 0. 0. 0.],-0.001953125,0.00390625,-0.0078125,[0. 0. 0. 0. 0. 0. 0. 0. 0.],-2.03125,-0.26953125,9.578125,[0. 0. 0. 0. 0. 0. 0. 0. 0.]
1742663045137325902,1742663045,130088262,imu_link,-0.0184326171875,0.10137939453125,0.00897216796875,0.99462890625,[0. 0. 0. 0. 0. 0. 0. 0. 0.],0.005859375,0.00390625,0.0,[0. 0. 0. 0. 0. 0. 0. 0. 0.],-1.9921875,-0.34375,9.5390625,[0. 0. 0. 0. 0. 0. 0. 0. 0.]
1742663045165648641,1742663045,150024814,imu_link,-0.0184326171875,0.10150146484375,0.0089111328125,0.99462890625,[0. 0. 0. 0. 0. 0. 0. 0. 0.],0.005859375,0.00390625,0.0,[0. 0. 0. 0. 0. 0. 0. 0. 0.],-1.953125,-0.3828125,9.61328125,[0. 0. 0. 0. 0. 0. 0. 0. 0.]
1742663045176983282,1742663045,169916977,imu_link,-0.0184326171875,0.10150146484375,0.0089111328125,0.99462890625,[0. 0. 0. 0. 0. 0. 0. 0. 0.],0.005859375,0.005859375,0.0,[0. 0. 0. 0. 0. 0. 0. 0. 0.],-1.953125,-0.3828125,9.61328125,[0. 0. 0. 0. 0. 0. 0. 0. 0.]
1742663045204362012,1742663045,190004660,imu_link,-0.0184326171875,0.1016845703125,0.0089111328125,0.99462890625,[0. 0. 0. 0. 0. 0. 0. 0. 0.],0.005859375,0.005859375,0.0,[0. 0. 0. 0. 0. 0. 0. 0. 0.],-1.953125,-0.3828125,9.5,[0. 0. 0. 0. 0. 0. 0. 0. 0.]
1742663045217323353,1742663045,209916341,imu_link,-0.0184326171875,0.1016845703125,0.0089111328125,0.99462890625,[0. 0. 0. 0. 0. 0. 0. 0. 0.],0.005859375,0.005859375,0.0,[0. 0. 0. 0. 0. 0. 0. 0. 0.],-1.9140625,-0.3046875,9.58203125,[0. 0. 0. 0. 0. 0. 0. 0. 0.]
1742663045237214349,1742663045,229986246,imu_link,-0.0184326171875,0.1016845703125,0.0089111328125,0.99462890625,[0. 0. 0. 0. 0. 0. 0. 0. 0.],0.001953125,0.00390625,0.0,[0. 0. 0. 0. 0. 0. 0. 0. 0.],-1.9140625,-0.3046875,9.58203125,[0. 0. 0. 0. 0. 0. 0. 0. 0.]
1742663045265337716,1742663045,250018521,imu_link,-0.0184326171875,0.101806640625,0.0089111328125,0.99456787109375,[0. 0. 0. 0. 0. 0. 0. 0. 0.],0.001953125,0.00390625,0.0,[0. 0. 0. 0. 0. 0. 0. 0. 0.],-1.9921875,-0.3046875,9.609375,[0. 0. 0. 0. 0. 0. 0. 0. 0.]
1742663045279390307,1742663045,269975702,imu_link,-0.0184326171875,0.101806640625,0.0089111328125,0.99456787109375,[0. 0. 0. 0. 0. 0. 0. 0. 0.],-0.00390625,0.00390625,-0.0078125,[0. 0. 0. 0. 0. 0. 0. 0. 0.],-1.9921875,-0.26953125,9.5390625,[0. 0. 0. 0. 0. 0. 0. 0. 0.]
1742663045303453748,1742663045,289972940,imu_link,-0.0185546875,0.10186767578125,0.0087890625,0.99456787109375,[0. 0. 0. 0. 0. 0. 0. 0. 0.],-0.00390625,0.00390625,-0.0078125,[0. 0. 0. 0. 0. 0. 0. 0. 0.],-1.9921875,-0.26953125,9.5390625,[0. 0. 0. 0. 0. 0. 0. 0. 0.]
1742663045313453469,1742663045,310047327,imu_link,-0.0185546875,0.10186767578125,0.0087890625,0.99456787109375,[0. 0. 0. 0. 0. 0. 0. 0. 0.],-0.00390625,0.00390625,-0.0078125,[0. 0. 0. 0. 0. 0. 0. 0. 0.],-1.9140625,-0.3828125,9.578125,[0. 0. 0. 0. 0. 0. 0. 0. 0.]
1742663045351723613,1742663045,329986804,imu_link,-0.0186767578125,0.1019287109375,0.00872802734375,0.99456787109375,[0. 0. 0. 0. 0. 0. 0. 0. 0.],-0.00390625,0.001953125,-0.00390625,[0. 0. 0. 0. 0. 0. 0. 0. 0.],-1.953125,-0.3828125,9.578125,[0. 0. 0. 0. 0. 0. 0. 0. 0.]
1742663045356681251,1742663045,354428564,imu_link,-0.0186767578125,0.1019287109375,0.00872802734375,0.99456787109375,[0. 0. 0. 0. 0. 0. 0. 0. 0.],-0.00390625,0.001953125,-0.00390625,[0. 0. 0. 0. 0. 0. 0. 0. 0.],-1.953125,-0.3828125,9.578125,[0. 0. 0. 0. 0. 0. 0. 0. 0.]
1742663045381996889,1742663045,370031317,imu_link,-0.0186767578125,0.1019287109375,0.00872802734375,0.99456787109375,[0. 0. 0. 0. 0. 0. 0. 0. 0.],-0.005859375,0.00390625,-0.001953125,[0. 0. 0. 0. 0. 0. 0. 0. 0.],-2.03125,-0.34375,9.578125,[0. 0. 0. 0. 0. 0. 0. 0. 0.]
1742663045407052358,1742663045,389993962,imu_link,-0.018798828125,0.10198974609375,0.0086669921875,0.99456787109375,[0. 0. 0. 0. 0. 0. 0. 0. 0.],-0.005859375,0.00390625,-0.001953125,[0. 0. 0. 0. 0. 0. 0. 0. 0.],-2.14453125,-0.34375,9.578125,[0. 0. 0. 0. 0. 0. 0. 0. 0.]
1742663045413580917,1742663045,410025755,imu_link,-0.018798828125,0.10198974609375,0.0086669921875,0.99456787109375,[0. 0. 0. 0. 0. 0. 0. 0. 0.],-0.005859375,0.00390625,-0.001953125,[0. 0. 0. 0. 0. 0. 0. 0. 0.],-2.14453125,-0.34375,9.578125,[0. 0. 0. 0. 0. 0. 0. 0. 0.]
1742663045451800451,1742663045,430019678,imu_link,-0.0189208984375,0.10205078125,0.00848388671875,0.99456787109375,[0. 0. 0. 0. 0. 0. 0. 0. 0.],0.0,0.00390625,-0.009765625,[0. 0. 0. 0. 0. 0. 0. 0. 0.],-2.0703125,-0.34375,9.609375,[0. 0. 0. 0. 0. 0. 0. 0. 0.]
1742663045457138536,1742663045,455107388,imu_link,-0.0189208984375,0.10205078125,0.00848388671875,0.99456787109375,[0. 0. 0. 0. 0. 0. 0. 0. 0.],0.0,0.00390625,-0.009765625,[0. 0. 0. 0. 0. 0. 0. 0. 0.],-2.0703125,-0.34375,9.609375,[0. 0. 0. 0. 0. 0. 0. 0. 0.]
1742663045481975577,1742663045,470004302,imu_link,-0.0189208984375,0.10205078125,0.00848388671875,0.99456787109375,[0. 0. 0. 0. 0. 0. 0. 0. 0.],0.001953125,0.001953125,0.005859375,[0. 0. 0. 0. 0. 0. 0. 0. 0.],-1.9921875,-0.421875,9.50390625,[0. 0. 0. 0. 0. 0. 0. 0. 0.]
1742663045504524153,1742663045,489999650,imu_link,-0.0189208984375,0.10211181640625,0.008544921875,0.99456787109375,[0. 0. 0. 0. 0. 0. 0. 0. 0.],0.001953125,0.001953125,0.005859375,[0. 0. 0. 0. 0. 0. 0. 0. 0.],-1.9921875,-0.26953125,9.578125,[0. 0. 0. 0. 0. 0. 0. 0. 0.]
1742663045513530920,1742663045,509969647,imu_link,-0.0189208984375,0.10211181640625,0.008544921875,0.99456787109375,[0. 0. 0. 0. 0. 0. 0. 0. 0.],0.001953125,0.001953125,0.005859375,[0. 0. 0. 0. 0. 0. 0. 0. 0.],-1.9921875,-0.26953125,9.578125,[0. 0. 0. 0. 0. 0. 0. 0. 0.]
1742663045551167078,1742663045,530061441,imu_link,-0.01898193359375,0.1021728515625,0.00836181640625,0.99456787109375,[0. 0. 0. 0. 0. 0. 0. 0. 0.],0.0,-0.001953125,-0.009765625,[0. 0. 0. 0. 0. 0. 0. 0. 0.],-1.9140625,-0.34375,9.578125,[0. 0. 0. 0. 0. 0. 0. 0. 0.]
1742663045556299106,1742663045,553907103,imu_link,-0.01898193359375,0.1021728515625,0.00836181640625,0.99456787109375,[0. 0. 0. 0. 0. 0. 0. 0. 0.],0.0,-0.001953125,-0.009765625,[0. 0. 0. 0. 0. 0. 0. 0. 0.],-1.9140625,-0.34375,9.578125,[0. 0. 0. 0. 0. 0. 0. 0. 0.]
1742663045576571457,1742663045,569987082,imu_link,-0.01898193359375,0.1021728515625,0.00836181640625,0.99456787109375,[0. 0. 0. 0. 0. 0. 0. 0. 0.],0.005859375,0.00390625,0.00390625,[0. 0. 0. 0. 0. 0. 0. 0. 0.],-1.9140625,-0.421875,9.54296875,[0. 0. 0. 0. 0. 0. 0. 0. 0.]
1742663045604495878,1742663045,590122803,imu_link,-0.0189208984375,0.102294921875,0.0084228515625,0.9945068359375,[0. 0. 0. 0. 0. 0. 0. 0. 0.],0.005859375,0.00390625,0.00390625,[0. 0. 0. 0. 0. 0. 0. 0. 0.],-1.9921875,-0.3046875,9.58203125,[0. 0. 0. 0. 0. 0. 0. 0. 0.]
1742663045613505534,1742663045,609960502,imu_link,-0.0189208984375,0.102294921875,0.0084228515625,0.9945068359375,[0. 0. 0. 0. 0. 0. 0. 0. 0.],0.005859375,0.00390625,0.00390625,[0. 0. 0. 0. 0. 0. 0. 0. 0.],-1.9921875,-0.3046875,9.58203125,[0. 0. 0. 0. 0. 0. 0. 0. 0.]
1742663045650713447,1742663045,630092852,imu_link,-0.0189208984375,0.1024169921875,0.00830078125,0.9945068359375,[0. 0. 0. 0. 0. 0. 0. 0. 0.],0.0,0.001953125,-0.005859375,[0. 0. 0. 0. 0. 0. 0. 0. 0.],-2.03125,-0.3046875,9.58203125,[0. 0. 0. 0. 0. 0. 0. 0. 0.]
1742663045660620111,1742663045,657470157,imu_link,-0.0189208984375,0.1024169921875,0.00830078125,0.9945068359375,[0. 0. 0. 0. 0. 0. 0. 0. 0.],0.0,0.001953125,-0.005859375,[0. 0. 0. 0. 0. 0. 0. 0. 0.],-2.03125,-0.34375,9.5,[0. 0. 0. 0. 0. 0. 0. 0. 0.]
1742663045676670776,1742663045,670037901,imu_link,-0.0189208984375,0.1024169921875,0.00830078125,0.9945068359375,[0. 0. 0. 0. 0. 0. 0. 0. 0.],0.00390625,0.001953125,0.0,[0. 0. 0. 0. 0. 0. 0. 0. 0.],-2.03125,-0.34375,9.5,[0. 0. 0. 0. 0. 0. 0. 0. 0.]
1742663045704705087,1742663045,690070639,imu_link,-0.018798828125,0.1024169921875,0.0081787109375,0.9945068359375,[0. 0. 0. 0. 0. 0. 0. 0. 0.],0.00390625,0.001953125,0.0,[0. 0. 0. 0. 0. 0. 0. 0. 0.],-1.9921875,-0.421875,9.609375,[0. 0. 0. 0. 0. 0. 0. 0. 0.]
1742663045713449185,1742663045,709972079,imu_link,-0.018798828125,0.1024169921875,0.0081787109375,0.9945068359375,[0. 0. 0. 0. 0. 0. 0. 0. 0.],0.00390625,0.001953125,0.0,[0. 0. 0. 0. 0. 0. 0. 0. 0.],-1.9921875,-0.421875,9.609375,[0. 0. 0. 0. 0. 0. 0. 0. 0.]
1742663045733805481,1742663045,730009965,imu_link,-0.018798828125,0.1024169921875,0.0081787109375,0.9945068359375,[0. 0. 0. 0. 0. 0. 0. 0. 0.],-0.001953125,0.00390625,-0.001953125,[0. 0. 0. 0. 0. 0. 0. 0. 0.],-2.03125,-0.3828125,9.578125,[0. 0. 0. 0. 0. 0. 0. 0. 0.]
1742663045764217740,1742663045,750062296,imu_link,-0.01885986328125,0.1025390625,0.00811767578125,0.9945068359375,[0. 0. 0. 0. 0. 0. 0. 0. 0.],-0.001953125,0.00390625,-0.001953125,[0. 0. 0. 0. 0. 0. 0. 0. 0.],-2.0703125,-0.3046875,9.5390625,[0. 0. 0. 0. 0. 0. 0. 0. 0.]
1742663045776665835,1742663045,770051459,imu_link,-0.01885986328125,0.1025390625,0.00811767578125,0.9945068359375,[0. 0. 0. 0. 0. 0. 0. 0. 0.],-0.0078125,0.00390625,-0.005859375,[0. 0. 0. 0. 0. 0. 0. 0. 0.],-2.0703125,-0.3046875,9.5390625,[0. 0. 0. 0. 0. 0. 0. 0. 0.]
1742663045804513699,1742663045,790070308,imu_link,-0.0189208984375,0.1026611328125,0.0079345703125,0.9945068359375,[0. 0. 0. 0. 0. 0. 0. 0. 0.],-0.0078125,0.00390625,-0.005859375,[0. 0. 0. 0. 0. 0. 0. 0. 0.],-2.03125,-0.3046875,9.58203125,[0. 0. 0. 0. 0. 0. 0. 0. 0.]
1742663045816592624,1742663045,809966378,imu_link,-0.0189208984375,0.1026611328125,0.0079345703125,0.9945068359375,[0. 0. 0. 0. 0. 0. 0. 0. 0.],-0.0078125,0.00390625,-0.005859375,[0. 0. 0. 0. 0. 0. 0. 0. 0.],-1.9921875,-0.26953125,9.5390625,[0. 0. 0. 0. 0. 0. 0. 0. 0.]
1742663045833562223,1742663045,829978820,imu_link,-0.0189208984375,0.1026611328125,0.0079345703125,0.9945068359375,[0. 0. 0. 0. 0. 0. 0. 0. 0.],-0.005859375,-0.001953125,-0.0078125,[0. 0. 0. 0. 0. 0. 0. 0. 0.],-1.9921875,-0.26953125,9.5390625,[0. 0. 0. 0. 0. 0. 0. 0. 0.]
1742663045864447763,1742663045,850058484,imu_link,-0.01904296875,0.10272216796875,0.00775146484375,0.9945068359375,[0. 0. 0. 0. 0. 0. 0. 0. 0.],-0.005859375,-0.001953125,-0.0078125,[0. 0. 0. 0. 0. 0. 0. 0. 0.],-1.9140625,-0.34375,9.5,[0. 0. 0. 0. 0. 0. 0. 0. 0.]
1742663045881300880,1742663045,869977684,imu_link,-0.01904296875,0.10272216796875,0.00775146484375,0.9945068359375,[0. 0. 0. 0. 0. 0. 0. 0. 0.],-0.00390625,0.00390625,-0.005859375,[0. 0. 0. 0. 0. 0. 0. 0. 0.],-1.953125,-0.421875,9.609375,[0. 0. 0. 0. 0. 0. 0. 0. 0.]
1742663045902857391,1742663045,890054293,imu_link,-0.01910400390625,0.10284423828125,0.007568359375,0.9945068359375,[0. 0. 0. 0. 0. 0. 0. 0. 0.],-0.00390625,0.00390625,-0.005859375,[0. 0. 0. 0. 0. 0. 0. 0. 0.],-1.953125,-0.421875,9.609375,[0. 0. 0. 0. 0. 0. 0. 0. 0.]
1742663045913858417,1742663045,909986900,imu_link,-0.01910400390625,0.10284423828125,0.007568359375,0.9945068359375,[0. 0. 0. 0. 0. 0. 0. 0. 0.],-0.00390625,0.00390625,-0.005859375,[0. 0. 0. 0. 0. 0. 0. 0. 0.],-2.03125,-0.421875,9.609375,[0. 0. 0. 0. 0. 0. 0. 0. 0.]
1742663045950861847,1742663045,930038212,imu_link,-0.01910400390625,0.1029052734375,0.007568359375,0.9945068359375,[0. 0. 0. 0. 0. 0. 0. 0. 0.],-0.00390625,-0.001953125,0.00390625,[0. 0. 0. 0. 0. 0. 0. 0. 0.],-2.03125,-0.421875,9.46484375,[0. 0. 0. 0. 0. 0. 0. 0. 0.]
1742663045956256951,1742663045,953478148,imu_link,-0.01910400390625,0.1029052734375,0.007568359375,0.9945068359375,[0. 0. 0. 0. 0. 0. 0. 0. 0.],-0.00390625,-0.001953125,0.00390625,[0. 0. 0. 0. 0. 0. 0. 0. 0.],-2.03125,-0.421875,9.46484375,[0. 0. 0. 0. 0. 0. 0. 0. 0.]
1742663045982569820,1742663045,970036854,imu_link,-0.01910400390625,0.1029052734375,0.007568359375,0.9945068359375,[0. 0. 0. 0. 0. 0. 0. 0. 0.],-0.005859375,-0.001953125,-0.001953125,[0. 0. 0. 0. 0. 0. 0. 0. 0.],-2.0703125,-0.3046875,9.65234375,[0. 0. 0. 0. 0. 0. 0. 0. 0.]
1742663046006884690,1742663045,990050351,imu_link,-0.01910400390625,0.1029052734375,0.007568359375,0.9945068359375,[0. 0. 0. 0. 0. 0. 0. 0. 0.],-0.005859375,-0.001953125,-0.001953125,[0. 0. 0. 0. 0. 0. 0. 0. 0.],-2.0703125,-0.26953125,9.50390625,[0. 0. 0. 0. 0. 0. 0. 0. 0.]
1742663046013437472,1742663046,9978014,imu_link,-0.01910400390625,0.1029052734375,0.007568359375,0.9945068359375,[0. 0. 0. 0. 0. 0. 0. 0. 0.],-0.005859375,-0.001953125,-0.001953125,[0. 0. 0. 0. 0. 0. 0. 0. 0.],-2.0703125,-0.26953125,9.50390625,[0. 0. 0. 0. 0. 0. 0. 0. 0.]
1742663046050343715,1742663046,30061734,imu_link,-0.01904296875,0.1029052734375,0.00738525390625,0.9945068359375,[0. 0. 0. 0. 0. 0. 0. 0. 0.],-0.0078125,-0.001953125,-0.005859375,[0. 0. 0. 0. 0. 0. 0. 0. 0.],-1.953125,-0.34375,9.578125,[0. 0. 0. 0. 0. 0. 0. 0. 0.]
1742663046055761246,1742663046,53375705,imu_link,-0.01904296875,0.1029052734375,0.00738525390625,0.9945068359375,[0. 0. 0. 0. 0. 0. 0. 0. 0.],-0.0078125,-0.001953125,-0.005859375,[0. 0. 0. 0. 0. 0. 0. 0. 0.],-1.953125,-0.34375,9.578125,[0. 0. 0. 0. 0. 0. 0. 0. 0.]
1742663046081830909,1742663046,70006949,imu_link,-0.01904296875,0.1029052734375,0.00738525390625,0.9945068359375,[0. 0. 0. 0. 0. 0. 0. 0. 0.],-0.0078125,0.001953125,-0.001953125,[0. 0. 0. 0. 0. 0. 0. 0. 0.],-1.9921875,-0.3828125,9.61328125,[0. 0. 0. 0. 0. 0. 0. 0. 0.]
1742663046103826053,1742663046,90233356,imu_link,-0.01904296875,0.10296630859375,0.00738525390625,0.99444580078125,[0. 0. 0. 0. 0. 0. 0. 0. 0.],-0.0078125,0.001953125,-0.001953125,[0. 0. 0. 0. 0. 0. 0. 0. 0.],-2.03125,-0.34375,9.5390625,[0. 0. 0. 0. 0. 0. 0. 0. 0.]
1742663046113376751,1742663046,109989850,imu_link,-0.01904296875,0.10296630859375,0.00738525390625,0.99444580078125,[0. 0. 0. 0. 0. 0. 0. 0. 0.],-0.0078125,0.001953125,-0.001953125,[0. 0. 0. 0. 0. 0. 0. 0. 0.],-2.03125,-0.34375,9.5390625,[0. 0. 0. 0. 0. 0. 0. 0. 0.]
1742663046146044493,1742663046,130057014,imu_link,-0.01904296875,0.10302734375,0.00726318359375,0.99444580078125,[0. 0. 0. 0. 0. 0. 0. 0. 0.],-0.005859375,0.001953125,-0.00390625,[0. 0. 0. 0. 0. 0. 0. 0. 0.],-1.9921875,-0.421875,9.609375,[0. 0. 0. 0. 0. 0. 0. 0. 0.]
1742663046153301040,1742663046,149961621,imu_link,-0.01904296875,0.10302734375,0.00726318359375,0.99444580078125,[0. 0. 0. 0. 0. 0. 0. 0. 0.],-0.005859375,0.001953125,-0.00390625,[0. 0. 0. 0. 0. 0. 0. 0. 0.],-1.9921875,-0.421875,9.609375,[0. 0. 0. 0. 0. 0. 0. 0. 0.]
1742663046181809300,1742663046,170075434,imu_link,-0.01904296875,0.10302734375,0.00726318359375,0.99444580078125,[0. 0. 0. 0. 0. 0. 0. 0. 0.],-0.0078125,0.001953125,0.013671875,[0. 0. 0. 0. 0. 0. 0. 0. 0.],-1.953125,-0.4609375,9.61328125,[0. 0. 0. 0. 0. 0. 0. 0. 0.]
1742663046204554488,1742663046,190032004,imu_link,-0.01904296875,0.1031494140625,0.00750732421875,0.99444580078125,[0. 0. 0. 0. 0. 0. 0. 0. 0.],-0.0078125,0.001953125,0.013671875,[0. 0. 0. 0. 0. 0. 0. 0. 0.],-2.03125,-0.34375,9.5390625,[0. 0. 0. 0. 0. 0. 0. 0. 0.]
1742663046213517107,1742663046,209985667,imu_link,-0.01904296875,0.1031494140625,0.00750732421875,0.99444580078125,[0. 0. 0. 0. 0. 0. 0. 0. 0.],-0.0078125,0.001953125,0.013671875,[0. 0. 0. 0. 0. 0. 0. 0. 0.],-2.03125,-0.34375,9.5390625,[0. 0. 0. 0. 0. 0. 0. 0. 0.]
1742663046250141551,1742663046,230059813,imu_link,-0.01904296875,0.10321044921875,0.0074462890625,0.99444580078125,[0. 0. 0. 0. 0. 0. 0. 0. 0.],-0.001953125,0.00390625,-0.005859375,[0. 0. 0. 0. 0. 0. 0. 0. 0.],-2.03125,-0.26953125,9.578125,[0. 0. 0. 0. 0. 0. 0. 0. 0.]
1742663046260481756,1742663046,256942317,imu_link,-0.01904296875,0.10321044921875,0.0074462890625,0.99444580078125,[0. 0. 0. 0. 0. 0. 0. 0. 0.],-0.001953125,0.00390625,-0.005859375,[0. 0. 0. 0. 0. 0. 0. 0. 0.],-1.9921875,-0.26953125,9.578125,[0. 0. 0. 0. 0. 0. 0. 0. 0.]
1742663046276805312,1742663046,270081547,imu_link,-0.01904296875,0.10321044921875,0.0074462890625,0.99444580078125,[0. 0. 0. 0. 0. 0. 0. 0. 0.],-0.001953125,0.0,0.0,[0. 0. 0. 0. 0. 0. 0. 0. 0.],-1.9921875,-0.26953125,9.578125,[0. 0. 0. 0. 0. 0. 0. 0. 0.]
1742663046304516842,1742663046,290069562,imu_link,-0.01910400390625,0.10321044921875,0.00738525390625,0.99444580078125,[0. 0. 0. 0. 0. 0. 0. 0. 0.],-0.001953125,0.0,0.0,[0. 0. 0. 0. 0. 0. 0. 0. 0.],-2.0703125,-0.23046875,9.5,[0. 0. 0. 0. 0. 0. 0. 0. 0.]
1742663046313648166,1742663046,310024373,imu_link,-0.01910400390625,0.10321044921875,0.00738525390625,0.99444580078125,[0. 0. 0. 0. 0. 0. 0. 0. 0.],-0.001953125,0.0,0.0,[0. 0. 0. 0. 0. 0. 0. 0. 0.],-2.0703125,-0.23046875,9.5,[0. 0. 0. 0. 0. 0. 0. 0. 0.]
1742663046333562162,1742663046,329979722,imu_link,-0.01910400390625,0.10321044921875,0.00738525390625,0.99444580078125,[0. 0. 0. 0. 0. 0. 0. 0. 0.],-0.005859375,0.0,-0.01953125,[0. 0. 0. 0. 0. 0. 0. 0. 0.],-2.0703125,-0.34375,9.609375,[0. 0. 0. 0. 0. 0. 0. 0. 0.]
1742663046364267552,1742663046,350075479,imu_link,-0.01922607421875,0.10321044921875,0.007080078125,0.99444580078125,[0. 0. 0. 0. 0. 0. 0. 0. 0.],-0.005859375,0.0,-0.01953125,[0. 0. 0. 0. 0. 0. 0. 0. 0.],-2.03125,-0.53515625,9.61328125,[0. 0. 0. 0. 0. 0. 0. 0. 0.]
1742663046376695054,1742663046,369982734,imu_link,-0.01922607421875,0.10321044921875,0.007080078125,0.99444580078125,[0. 0. 0. 0. 0. 0. 0. 0. 0.],0.0,0.00390625,0.013671875,[0. 0. 0. 0. 0. 0. 0. 0. 0.],-2.03125,-0.53515625,9.61328125,[0. 0. 0. 0. 0. 0. 0. 0. 0.]
1742663046404356676,1742663046,390073120,imu_link,-0.01922607421875,0.103271484375,0.00726318359375,0.99444580078125,[0. 0. 0. 0. 0. 0. 0. 0. 0.],0.0,0.00390625,0.013671875,[0. 0. 0. 0. 0. 0. 0. 0. 0.],-2.03125,-0.4609375,9.5390625,[0. 0. 0. 0. 0. 0. 0. 0. 0.]
1742663046421192514,1742663046,410195303,imu_link,-0.01922607421875,0.103271484375,0.00726318359375,0.99444580078125,[0. 0. 0. 0. 0. 0. 0. 0. 0.],0.0,0.00390625,0.013671875,[0. 0. 0. 0. 0. 0. 0. 0. 0.],-2.10546875,-0.23046875,9.578125,[0. 0. 0. 0. 0. 0. 0. 0. 0.]
1742663046433500904,1742663046,429992594,imu_link,-0.01922607421875,0.103271484375,0.00726318359375,0.99444580078125,[0. 0. 0. 0. 0. 0. 0. 0. 0.],0.0,0.001953125,-0.0078125,[0. 0. 0. 0. 0. 0. 0. 0. 0.],-2.10546875,-0.23046875,9.578125,[0. 0. 0. 0. 0. 0. 0. 0. 0.]
1742663046464217276,1742663046,450087833,imu_link,-0.019287109375,0.10333251953125,0.00714111328125,0.99444580078125,[0. 0. 0. 0. 0. 0. 0. 0. 0.],0.0,0.001953125,-0.0078125,[0. 0. 0. 0. 0. 0. 0. 0. 0.],-2.03125,-0.3046875,9.58203125,[0. 0. 0. 0. 0. 0. 0. 0. 0.]
1742663046481656268,1742663046,469967884,imu_link,-0.019287109375,0.10333251953125,0.00714111328125,0.99444580078125,[0. 0. 0. 0. 0. 0. 0. 0. 0.],0.0,0.0,0.001953125,[0. 0. 0. 0. 0. 0. 0. 0. 0.],-1.953125,-0.34375,9.5,[0. 0. 0. 0. 0. 0. 0. 0. 0.]
1742663046503657487,1742663046,490081697,imu_link,-0.01922607421875,0.10333251953125,0.007080078125,0.99444580078125,[0. 0. 0. 0. 0. 0. 0. 0. 0.],0.0,0.0,0.001953125,[0. 0. 0. 0. 0. 0. 0. 0. 0.],-1.953125,-0.34375,9.5,[0. 0. 0. 0. 0. 0. 0. 0. 0.]
1742663046513895469,1742663046,510496642,imu_link,-0.01922607421875,0.10333251953125,0.007080078125,0.99444580078125,[0. 0. 0. 0. 0. 0. 0. 0. 0.],0.0,0.0,0.001953125,[0. 0. 0. 0. 0. 0. 0. 0. 0.],-2.03125,-0.3046875,9.6484375,[0. 0. 0. 0. 0. 0. 0. 0. 0.]
1742663046536776603,1742663046,530080190,imu_link,-0.01922607421875,0.10333251953125,0.007080078125,0.99444580078125,[0. 0. 0. 0. 0. 0. 0. 0. 0.],0.00390625,-0.001953125,-0.01171875,[0. 0. 0. 0. 0. 0. 0. 0. 0.],-2.03125,-0.3046875,9.6484375,[0. 0. 0. 0. 0. 0. 0. 0. 0.]
1742663046553917759,1742663046,550228596,imu_link,-0.01922607421875,0.10333251953125,0.0068359375,0.99444580078125,[0. 0. 0. 0. 0. 0. 0. 0. 0.],0.00390625,-0.001953125,-0.01171875,[0. 0. 0. 0. 0. 0. 0. 0. 0.],-2.03125,-0.34375,9.5,[0. 0. 0. 0. 0. 0. 0. 0. 0.]
1742663046581629141,1742663046,570041276,imu_link,-0.01922607421875,0.10333251953125,0.0068359375,0.99444580078125,[0. 0. 0. 0. 0. 0. 0. 0. 0.],0.0,-0.001953125,0.0,[0. 0. 0. 0. 0. 0. 0. 0. 0.],-1.9140625,-0.49609375,9.578125,[0. 0. 0. 0. 0. 0. 0. 0. 0.]
1742663046606274939,1742663046,590151570,imu_link,-0.0191650390625,0.10333251953125,0.0067138671875,0.99444580078125,[0. 0. 0. 0. 0. 0. 0. 0. 0.],0.0,-0.001953125,0.0,[0. 0. 0. 0. 0. 0. 0. 0. 0.],-1.9140625,-0.34375,9.578125,[0. 0. 0. 0. 0. 0. 0. 0. 0.]
1742663046613498430,1742663046,610006788,imu_link,-0.0191650390625,0.10333251953125,0.0067138671875,0.99444580078125,[0. 0. 0. 0. 0. 0. 0. 0. 0.],0.0,-0.001953125,0.0,[0. 0. 0. 0. 0. 0. 0. 0. 0.],-1.9140625,-0.34375,9.578125,[0. 0. 0. 0. 0. 0. 0. 0. 0.]
1742663046651011086,1742663046,630088841,imu_link,-0.0191650390625,0.103271484375,0.00665283203125,0.99444580078125,[0. 0. 0. 0. 0. 0. 0. 0. 0.],-0.00390625,-0.00390625,-0.005859375,[0. 0. 0. 0. 0. 0. 0. 0. 0.],-1.9921875,-0.3046875,9.58203125,[0. 0. 0. 0. 0. 0. 0. 0. 0.]
1742663046655533072,1742663046,653724926,imu_link,-0.0191650390625,0.103271484375,0.00665283203125,0.99444580078125,[0. 0. 0. 0. 0. 0. 0. 0. 0.],-0.00390625,-0.00390625,-0.005859375,[0. 0. 0. 0. 0. 0. 0. 0. 0.],-1.9921875,-0.3046875,9.58203125,[0. 0. 0. 0. 0. 0. 0. 0. 0.]
1742663046681681791,1742663046,670032130,imu_link,-0.0191650390625,0.103271484375,0.00665283203125,0.99444580078125,[0. 0. 0. 0. 0. 0. 0. 0. 0.],-0.00390625,0.00390625,-0.01171875,[0. 0. 0. 0. 0. 0. 0. 0. 0.],-2.03125,-0.34375,9.61328125,[0. 0. 0. 0. 0. 0. 0. 0. 0.]
1742663046703635213,1742663046,690002997,imu_link,-0.01922607421875,0.103271484375,0.00640869140625,0.99444580078125,[0. 0. 0. 0. 0. 0. 0. 0. 0.],-0.00390625,0.00390625,-0.01171875,[0. 0. 0. 0. 0. 0. 0. 0. 0.],-2.0703125,-0.34375,9.58203125,[0. 0. 0. 0. 0. 0. 0. 0. 0.]
1742663046713546470,1742663046,710024068,imu_link,-0.01922607421875,0.103271484375,0.00640869140625,0.99444580078125,[0. 0. 0. 0. 0. 0. 0. 0. 0.],-0.00390625,0.00390625,-0.01171875,[0. 0. 0. 0. 0. 0. 0. 0. 0.],-2.0703125,-0.34375,9.58203125,[0. 0. 0. 0. 0. 0. 0. 0. 0.]
1742663046750981218,1742663046,730113158,imu_link,-0.01922607421875,0.103271484375,0.00616455078125,0.99444580078125,[0. 0. 0. 0. 0. 0. 0. 0. 0.],0.0,0.00390625,-0.0078125,[0. 0. 0. 0. 0. 0. 0. 0. 0.],-2.10546875,-0.26953125,9.50390625,[0. 0. 0. 0. 0. 0. 0. 0. 0.]
1742663046755445388,1742663046,753658298,imu_link,-0.01922607421875,0.103271484375,0.00616455078125,0.99444580078125,[0. 0. 0. 0. 0. 0. 0. 0. 0.],0.0,0.00390625,-0.0078125,[0. 0. 0. 0. 0. 0. 0. 0. 0.],-2.10546875,-0.26953125,9.50390625,[0. 0. 0. 0. 0. 0. 0. 0. 0.]
1742663046781010343,1742663046,770127837,imu_link,-0.01922607421875,0.103271484375,0.00616455078125,0.99444580078125,[0. 0. 0. 0. 0. 0. 0. 0. 0.],0.005859375,0.00390625,-0.025390625,[0. 0. 0. 0. 0. 0. 0. 0. 0.],-2.14453125,-0.26953125,9.578125,[0. 0. 0. 0. 0. 0. 0. 0. 0.]
1742663046803761198,1742663046,789975721,imu_link,-0.01922607421875,0.103271484375,0.00567626953125,0.99444580078125,[0. 0. 0. 0. 0. 0. 0. 0. 0.],0.005859375,0.00390625,-0.025390625,[0. 0. 0. 0. 0. 0. 0. 0. 0.],-2.03125,-0.3828125,9.578125,[0. 0. 0. 0. 0. 0. 0. 0. 0.]
1742663046813681788,1742663046,810032163,imu_link,-0.01922607421875,0.103271484375,0.00567626953125,0.99444580078125,[0. 0. 0. 0. 0. 0. 0. 0. 0.],0.005859375,0.00390625,-0.025390625,[0. 0. 0. 0. 0. 0. 0. 0. 0.],-2.03125,-0.3828125,9.578125,[0. 0. 0. 0. 0. 0. 0. 0. 0.]
1742663046850332640,1742663046,830093771,imu_link,-0.01922607421875,0.10333251953125,0.005615234375,0.99444580078125,[0. 0. 0. 0. 0. 0. 0. 0. 0.],0.00390625,0.001953125,0.001953125,[0. 0. 0. 0. 0. 0. 0. 0. 0.],-1.953125,-0.49609375,9.5390625,[0. 0. 0. 0. 0. 0. 0. 0. 0.]
1742663046860116229,1742663046,856485122,imu_link,-0.01922607421875,0.10333251953125,0.005615234375,0.99444580078125,[0. 0. 0. 0. 0. 0. 0. 0. 0.],0.00390625,0.001953125,0.001953125,[0. 0. 0. 0. 0. 0. 0. 0. 0.],-1.9921875,-0.4609375,9.578125,[0. 0. 0. 0. 0. 0. 0. 0. 0.]
1742663046877433813,1742663046,870012505,imu_link,-0.01922607421875,0.10333251953125,0.005615234375,0.99444580078125,[0. 0. 0. 0. 0. 0. 0. 0. 0.],0.005859375,0.0,-0.001953125,[0. 0. 0. 0. 0. 0. 0. 0. 0.],-1.9921875,-0.4609375,9.578125,[0. 0. 0. 0. 0. 0. 0. 0. 0.]
1742663046903372604,1742663046,890010187,imu_link,-0.019287109375,0.10333251953125,0.005615234375,0.99444580078125,[0. 0. 0. 0. 0. 0. 0. 0. 0.],0.005859375,0.0,-0.001953125,[0. 0. 0. 0. 0. 0. 0. 0. 0.],-1.9921875,-0.3046875,9.609375,[0. 0. 0. 0. 0. 0. 0. 0. 0.]
1742663046914322982,1742663046,910038498,imu_link,-0.019287109375,0.10333251953125,0.005615234375,0.99444580078125,[0. 0. 0. 0. 0. 0. 0. 0. 0.],0.005859375,0.0,-0.001953125,[0. 0. 0. 0. 0. 0. 0. 0. 0.],-1.9921875,-0.3046875,9.609375,[0. 0. 0. 0. 0. 0. 0. 0. 0.]
1742663046932963040,1742663046,930077292,imu_link,-0.019287109375,0.10333251953125,0.005615234375,0.99444580078125,[0. 0. 0. 0. 0. 0. 0. 0. 0.],0.00390625,-0.001953125,-0.0078125,[0. 0. 0. 0. 0. 0. 0. 0. 0.],-1.9140625,-0.26953125,9.5,[0. 0. 0. 0. 0. 0. 0. 0. 0.]
1742663046963371391,1742663046,950050307,imu_link,-0.01934814453125,0.10333251953125,0.00543212890625,0.99444580078125,[0. 0. 0. 0. 0. 0. 0. 0. 0.],0.00390625,-0.001953125,-0.0078125,[0. 0. 0. 0. 0. 0. 0. 0. 0.],-1.953125,-0.26953125,9.65234375,[0. 0. 0. 0. 0. 0. 0. 0. 0.]
1742663046976218156,1742663046,969965210,imu_link,-0.01934814453125,0.10333251953125,0.00543212890625,0.99444580078125,[0. 0. 0. 0. 0. 0. 0. 0. 0.],0.00390625,0.0,-0.00390625,[0. 0. 0. 0. 0. 0. 0. 0. 0.],-1.953125,-0.26953125,9.65234375,[0. 0. 0. 0. 0. 0. 0. 0. 0.]
1742663047003219939,1742663046,990045874,imu_link,-0.0194091796875,0.103271484375,0.00531005859375,0.99444580078125,[0. 0. 0. 0. 0. 0. 0. 0. 0.],0.00390625,0.0,-0.00390625,[0. 0. 0. 0. 0. 0. 0. 0. 0.],-2.0703125,-0.34375,9.58203125,[0. 0. 0. 0. 0. 0. 0. 0. 0.]
1742663047020913192,1742663047,9993482,imu_link,-0.0194091796875,0.103271484375,0.00531005859375,0.99444580078125,[0. 0. 0. 0. 0. 0. 0. 0. 0.],0.009765625,0.00390625,-0.0078125,[0. 0. 0. 0. 0. 0. 0. 0. 0.],-2.10546875,-0.4609375,9.54296875,[0. 0. 0. 0. 0. 0. 0. 0. 0.]
1742663047032896634,1742663047,30070534,imu_link,-0.0194091796875,0.103271484375,0.00531005859375,0.99444580078125,[0. 0. 0. 0. 0. 0. 0. 0. 0.],0.009765625,0.00390625,-0.0078125,[0. 0. 0. 0. 0. 0. 0. 0. 0.],-2.10546875,-0.4609375,9.54296875,[0. 0. 0. 0. 0. 0. 0. 0. 0.]
1742663047063466764,1742663047,49999271,imu_link,-0.01934814453125,0.103271484375,0.00506591796875,0.99444580078125,[0. 0. 0. 0. 0. 0. 0. 0. 0.],0.009765625,0.00390625,-0.0078125,[0. 0. 0. 0. 0. 0. 0. 0. 0.],-2.03125,-0.49609375,9.61328125,[0. 0. 0. 0. 0. 0. 0. 0. 0.]
1742663047081153795,1742663047,69985286,imu_link,-0.01934814453125,0.103271484375,0.00506591796875,0.99444580078125,[0. 0. 0. 0. 0. 0. 0. 0. 0.],0.00390625,0.0,0.013671875,[0. 0. 0. 0. 0. 0. 0. 0. 0.],-1.9921875,-0.34375,9.5390625,[0. 0. 0. 0. 0. 0. 0. 0. 0.]
1742663047102067689,1742663047,90153803,imu_link,-0.019287109375,0.103271484375,0.00531005859375,0.99444580078125,[0. 0. 0. 0. 0. 0. 0. 0. 0.],0.00390625,0.0,0.013671875,[0. 0. 0. 0. 0. 0. 0. 0. 0.],-1.9921875,-0.34375,9.5390625,[0. 0. 0. 0. 0. 0. 0. 0. 0.]
1742663047122971212,1742663047,110003909,imu_link,-0.019287109375,0.103271484375,0.00531005859375,0.99444580078125,[0. 0. 0. 0. 0. 0. 0. 0. 0.],0.00390625,-0.001953125,-0.013671875,[0. 0. 0. 0. 0. 0. 0. 0. 0.],-1.953125,-0.23046875,9.50390625,[0. 0. 0. 0. 0. 0. 0. 0. 0.]
1742663047133344288,1742663047,130460151,imu_link,-0.019287109375,0.103271484375,0.00531005859375,0.99444580078125,[0. 0. 0. 0. 0. 0. 0. 0. 0.],0.00390625,-0.001953125,-0.013671875,[0. 0. 0. 0. 0. 0. 0. 0. 0.],-1.953125,-0.23046875,9.50390625,[0. 0. 0. 0. 0. 0. 0. 0. 0.]
1742663047163533025,1742663047,149981884,imu_link,-0.01934814453125,0.1031494140625,0.005126953125,0.99444580078125,[0. 0. 0. 0. 0. 0. 0. 0. 0.],0.00390625,-0.001953125,-0.013671875,[0. 0. 0. 0. 0. 0. 0. 0. 0.],-1.9140625,-0.34375,9.65234375,[0. 0. 0. 0. 0. 0. 0. 0. 0.]
1742663047180786719,1742663047,169965158,imu_link,-0.01934814453125,0.1031494140625,0.005126953125,0.99444580078125,[0. 0. 0. 0. 0. 0. 0. 0. 0.],0.00390625,0.00390625,0.00390625,[0. 0. 0. 0. 0. 0. 0. 0. 0.],-1.9921875,-0.421875,9.609375,[0. 0. 0. 0. 0. 0. 0. 0. 0.]
1742663047205757131,1742663047,189974340,imu_link,-0.01934814453125,0.1031494140625,0.005126953125,0.99444580078125,[0. 0. 0. 0. 0. 0. 0. 0. 0.],0.00390625,0.00390625,0.00390625,[0. 0. 0. 0. 0. 0. 0. 0. 0.],-2.0703125,-0.34375,9.50390625,[0. 0. 0. 0. 0. 0. 0. 0. 0.]
1742663047213091198,1742663047,209959262,imu_link,-0.01934814453125,0.1031494140625,0.005126953125,0.99444580078125,[0. 0. 0. 0. 0. 0. 0. 0. 0.],0.00390625,0.00390625,0.00390625,[0. 0. 0. 0. 0. 0. 0. 0. 0.],-2.0703125,-0.34375,9.50390625,[0. 0. 0. 0. 0. 0. 0. 0. 0.]
1742663047246571021,1742663047,230097204,imu_link,-0.01934814453125,0.10308837890625,0.00494384765625,0.99444580078125,[0. 0. 0. 0. 0. 0. 0. 0. 0.],0.005859375,-0.001953125,-0.0078125,[0. 0. 0. 0. 0. 0. 0. 0. 0.],-2.0703125,-0.3828125,9.609375,[0. 0. 0. 0. 0. 0. 0. 0. 0.]
1742663047252739114,1742663047,249963755,imu_link,-0.01934814453125,0.10308837890625,0.00494384765625,0.99444580078125,[0. 0. 0. 0. 0. 0. 0. 0. 0.],0.005859375,-0.001953125,-0.0078125,[0. 0. 0. 0. 0. 0. 0. 0. 0.],-2.0703125,-0.3828125,9.609375,[0. 0. 0. 0. 0. 0. 0. 0. 0.]
1742663047281099853,1742663047,270055382,imu_link,-0.01934814453125,0.10308837890625,0.00494384765625,0.99444580078125,[0. 0. 0. 0. 0. 0. 0. 0. 0.],0.001953125,-0.001953125,0.00390625,[0. 0. 0. 0. 0. 0. 0. 0. 0.],-1.9921875,-0.421875,9.54296875,[0. 0. 0. 0. 0. 0. 0. 0. 0.]
1742663047302814847,1742663047,289977971,imu_link,-0.01934814453125,0.10296630859375,0.0050048828125,0.9945068359375,[0. 0. 0. 0. 0. 0. 0. 0. 0.],0.001953125,-0.001953125,0.00390625,[0. 0. 0. 0. 0. 0. 0. 0. 0.],-2.0703125,-0.3046875,9.578125,[0. 0. 0. 0. 0. 0. 0. 0. 0.]
1742663047312896438,1742663047,310005949,imu_link,-0.01934814453125,0.10296630859375,0.0050048828125,0.9945068359375,[0. 0. 0. 0. 0. 0. 0. 0. 0.],0.001953125,-0.001953125,0.00390625,[0. 0. 0. 0. 0. 0. 0. 0. 0.],-2.0703125,-0.3046875,9.578125,[0. 0. 0. 0. 0. 0. 0. 0. 0.]
1742663047349789088,1742663047,330076298,imu_link,-0.0194091796875,0.1029052734375,0.0050048828125,0.9945068359375,[0. 0. 0. 0. 0. 0. 0. 0. 0.],0.0,-0.001953125,0.0,[0. 0. 0. 0. 0. 0. 0. 0. 0.],-2.03125,-0.34375,9.61328125,[0. 0. 0. 0. 0. 0. 0. 0. 0.]
1742663047354199721,1742663047,352427557,imu_link,-0.0194091796875,0.1029052734375,0.0050048828125,0.9945068359375,[0. 0. 0. 0. 0. 0. 0. 0. 0.],0.0,-0.001953125,0.0,[0. 0. 0. 0. 0. 0. 0. 0. 0.],-2.03125,-0.34375,9.61328125,[0. 0. 0. 0. 0. 0. 0. 0. 0.]
1742663047382343514,1742663047,369982531,imu_link,-0.0194091796875,0.1029052734375,0.0050048828125,0.9945068359375,[0. 0. 0. 0. 0. 0. 0. 0. 0.],-0.00390625,-0.00390625,0.005859375,[0. 0. 0. 0. 0. 0. 0. 0. 0.],-1.953125,-0.3828125,9.5390625,[0. 0. 0. 0. 0. 0. 0. 0. 0.]
1742663047402811311,1742663047,389980768,imu_link,-0.01947021484375,0.1029052734375,0.00506591796875,0.9945068359375,[0. 0. 0. 0. 0. 0. 0. 0. 0.],-0.00390625,-0.00390625,0.005859375,[0. 0. 0. 0. 0. 0. 0. 0. 0.],-1.9921875,-0.3828125,9.5390625,[0. 0. 0. 0. 0. 0. 0. 0. 0.]
1742663047412393435,1742663047,410089785,imu_link,-0.01947021484375,0.1029052734375,0.00506591796875,0.9945068359375,[0. 0. 0. 0. 0. 0. 0. 0. 0.],-0.00390625,-0.00390625,0.005859375,[0. 0. 0. 0. 0. 0. 0. 0. 0.],-1.9921875,-0.3828125,9.5390625,[0. 0. 0. 0. 0. 0. 0. 0. 0.]
1742663047449440346,1742663047,430081577,imu_link,-0.0194091796875,0.10284423828125,0.00518798828125,0.9945068359375,[0. 0. 0. 0. 0. 0. 0. 0. 0.],-0.001953125,-0.00390625,0.0078125,[0. 0. 0. 0. 0. 0. 0. 0. 0.],-2.03125,-0.3828125,9.61328125,[0. 0. 0. 0. 0. 0. 0. 0. 0.]
1742663047458257741,1742663047,454891303,imu_link,-0.0194091796875,0.10284423828125,0.00518798828125,0.9945068359375,[0. 0. 0. 0. 0. 0. 0. 0. 0.],-0.001953125,-0.00390625,0.0078125,[0. 0. 0. 0. 0. 0. 0. 0. 0.],-2.0703125,-0.421875,9.5390625,[0. 0. 0. 0. 0. 0. 0. 0. 0.]
1742663047476138329,1742663047,469971792,imu_link,-0.0194091796875,0.10284423828125,0.00518798828125,0.9945068359375,[0. 0. 0. 0. 0. 0. 0. 0. 0.],0.0,-0.005859375,0.0078125,[0. 0. 0. 0. 0. 0. 0. 0. 0.],-2.0703125,-0.421875,9.5390625,[0. 0. 0. 0. 0. 0. 0. 0. 0.]
1742663047502195955,1742663047,490066789,imu_link,-0.019287109375,0.102783203125,0.00543212890625,0.9945068359375,[0. 0. 0. 0. 0. 0. 0. 0. 0.],0.0,-0.005859375,0.0078125,[0. 0. 0. 0. 0. 0. 0. 0. 0.],-1.9921875,-0.421875,9.54296875,[0. 0. 0. 0. 0. 0. 0. 0. 0.]
1742663047512240750,1742663047,510022285,imu_link,-0.019287109375,0.102783203125,0.00543212890625,0.9945068359375,[0. 0. 0. 0. 0. 0. 0. 0. 0.],0.0,-0.005859375,0.0078125,[0. 0. 0. 0. 0. 0. 0. 0. 0.],-1.9921875,-0.421875,9.54296875,[0. 0. 0. 0. 0. 0. 0. 0. 0.]
1742663047545164160,1742663047,530083690,imu_link,-0.0191650390625,0.10272216796875,0.00567626953125,0.9945068359375,[0. 0. 0. 0. 0. 0. 0. 0. 0.],-0.001953125,-0.005859375,0.0078125,[0. 0. 0. 0. 0. 0. 0. 0. 0.],-1.9921875,-0.26953125,9.65234375,[0. 0. 0. 0. 0. 0. 0. 0. 0.]
1742663047555556347,1742663047,553073436,imu_link,-0.0191650390625,0.10272216796875,0.00567626953125,0.9945068359375,[0. 0. 0. 0. 0. 0. 0. 0. 0.],-0.001953125,-0.005859375,0.0078125,[0. 0. 0. 0. 0. 0. 0. 0. 0.],-1.9140625,-0.26953125,9.42578125,[0. 0. 0. 0. 0. 0. 0. 0. 0.]
1742663047576503075,1742663047,570069609,imu_link,-0.0191650390625,0.10272216796875,0.00567626953125,0.9945068359375,[0. 0. 0. 0. 0. 0. 0. 0. 0.],-0.00390625,-0.005859375,0.0,[0. 0. 0. 0. 0. 0. 0. 0. 0.],-1.9140625,-0.26953125,9.42578125,[0. 0. 0. 0. 0. 0. 0. 0. 0.]
1742663047602454977,1742663047,590116050,imu_link,-0.0191650390625,0.1026611328125,0.005615234375,0.9945068359375,[0. 0. 0. 0. 0. 0. 0. 0. 0.],-0.00390625,-0.005859375,0.0,[0. 0. 0. 0. 0. 0. 0. 0. 0.],-1.87890625,-0.3828125,9.69140625,[0. 0. 0. 0. 0. 0. 0. 0. 0.]
1742663047620736421,1742663047,609974823,imu_link,-0.0191650390625,0.1026611328125,0.005615234375,0.9945068359375,[0. 0. 0. 0. 0. 0. 0. 0. 0.],0.0,0.001953125,0.00390625,[0. 0. 0. 0. 0. 0. 0. 0. 0.],-1.9140625,-0.421875,9.58203125,[0. 0. 0. 0. 0. 0. 0. 0. 0.]
1742663047632353619,1742663047,630090303,imu_link,-0.0191650390625,0.1026611328125,0.005615234375,0.9945068359375,[0. 0. 0. 0. 0. 0. 0. 0. 0.],0.0,0.001953125,0.00390625,[0. 0. 0. 0. 0. 0. 0. 0. 0.],-1.9140625,-0.421875,9.58203125,[0. 0. 0. 0. 0. 0. 0. 0. 0.]
1742663047652296245,1742663047,650082706,imu_link,-0.01904296875,0.1026611328125,0.00567626953125,0.9945068359375,[0. 0. 0. 0. 0. 0. 0. 0. 0.],0.0,0.001953125,0.00390625,[0. 0. 0. 0. 0. 0. 0. 0. 0.],-2.03125,-0.34375,9.5390625,[0. 0. 0. 0. 0. 0. 0. 0. 0.]
1742663047679727772,1742663047,670060258,imu_link,-0.01904296875,0.1026611328125,0.00567626953125,0.9945068359375,[0. 0. 0. 0. 0. 0. 0. 0. 0.],-0.001953125,0.001953125,0.0,[0. 0. 0. 0. 0. 0. 0. 0. 0.],-2.0703125,-0.3046875,9.61328125,[0. 0. 0. 0. 0. 0. 0. 0. 0.]
1742663047702352737,1742663047,689979328,imu_link,-0.01898193359375,0.1026611328125,0.0057373046875,0.9945068359375,[0. 0. 0. 0. 0. 0. 0. 0. 0.],-0.001953125,0.001953125,0.0,[0. 0. 0. 0. 0. 0. 0. 0. 0.],-2.0703125,-0.3046875,9.61328125,[0. 0. 0. 0. 0. 0. 0. 0. 0.]
1742663047721481466,1742663047,710026418,imu_link,-0.01898193359375,0.1026611328125,0.0057373046875,0.9945068359375,[0. 0. 0. 0. 0. 0. 0. 0. 0.],-0.001953125,0.001953125,0.005859375,[0. 0. 0. 0. 0. 0. 0. 0. 0.],-2.03125,-0.3828125,9.5390625,[0. 0. 0. 0. 0. 0. 0. 0. 0.]
1742663047732463529,1742663047,730063100,imu_link,-0.01898193359375,0.1026611328125,0.0057373046875,0.9945068359375,[0. 0. 0. 0. 0. 0. 0. 0. 0.],-0.001953125,0.001953125,0.005859375,[0. 0. 0. 0. 0. 0. 0. 0. 0.],-2.03125,-0.3828125,9.5390625,[0. 0. 0. 0. 0. 0. 0. 0. 0.]
1742663047764330411,1742663047,750026633,imu_link,-0.0189208984375,0.1026611328125,0.00579833984375,0.9945068359375,[0. 0. 0. 0. 0. 0. 0. 0. 0.],-0.001953125,0.001953125,0.005859375,[0. 0. 0. 0. 0. 0. 0. 0. 0.],-2.03125,-0.34375,9.578125,[0. 0. 0. 0. 0. 0. 0. 0. 0.]
1742663047778501281,1742663047,774733043,imu_link,-0.0189208984375,0.1026611328125,0.00579833984375,0.9945068359375,[0. 0. 0. 0. 0. 0. 0. 0. 0.],-0.005859375,0.001953125,-0.001953125,[0. 0. 0. 0. 0. 0. 0. 0. 0.],-2.03125,-0.3046875,9.609375,[0. 0. 0. 0. 0. 0. 0. 0. 0.]
1742663047806992021,1742663047,789979237,imu_link,-0.0189208984375,0.10260009765625,0.005859375,0.9945068359375,[0. 0. 0. 0. 0. 0. 0. 0. 0.],-0.005859375,0.001953125,-0.001953125,[0. 0. 0. 0. 0. 0. 0. 0. 0.],-1.953125,-0.3046875,9.58203125,[0. 0. 0. 0. 0. 0. 0. 0. 0.]
1742663047812159476,1742663047,809978660,imu_link,-0.0189208984375,0.10260009765625,0.005859375,0.9945068359375,[0. 0. 0. 0. 0. 0. 0. 0. 0.],-0.005859375,0.001953125,-0.001953125,[0. 0. 0. 0. 0. 0. 0. 0. 0.],-1.953125,-0.3046875,9.58203125,[0. 0. 0. 0. 0. 0. 0. 0. 0.]
1742663047847642539,1742663047,830089861,imu_link,-0.0189208984375,0.10260009765625,0.0057373046875,0.9945068359375,[0. 0. 0. 0. 0. 0. 0. 0. 0.],-0.005859375,-0.00390625,-0.00390625,[0. 0. 0. 0. 0. 0. 0. 0. 0.],-1.9140625,-0.421875,9.50390625,[0. 0. 0. 0. 0. 0. 0. 0. 0.]
1742663047852178543,1742663047,850298230,imu_link,-0.0189208984375,0.10260009765625,0.0057373046875,0.9945068359375,[0. 0. 0. 0. 0. 0. 0. 0. 0.],-0.005859375,-0.00390625,-0.00390625,[0. 0. 0. 0. 0. 0. 0. 0. 0.],-1.9140625,-0.421875,9.50390625,[0. 0. 0. 0. 0. 0. 0. 0. 0.]
1742663047881322252,1742663047,870072595,imu_link,-0.0189208984375,0.10260009765625,0.0057373046875,0.9945068359375,[0. 0. 0. 0. 0. 0. 0. 0. 0.],0.00390625,-0.00390625,0.005859375,[0. 0. 0. 0. 0. 0. 0. 0. 0.],-1.9921875,-0.3828125,9.578125,[0. 0. 0. 0. 0. 0. 0. 0. 0.]
1742663047906994023,1742663047,890014313,imu_link,-0.01885986328125,0.10247802734375,0.005859375,0.99456787109375,[0. 0. 0. 0. 0. 0. 0. 0. 0.],0.00390625,-0.00390625,0.005859375,[0. 0. 0. 0. 0. 0. 0. 0. 0.],-2.03125,-0.3046875,9.609375,[0. 0. 0. 0. 0. 0. 0. 0. 0.]
1742663047912087643,1742663047,910039773,imu_link,-0.01885986328125,0.10247802734375,0.005859375,0.99456787109375,[0. 0. 0. 0. 0. 0. 0. 0. 0.],0.00390625,-0.00390625,0.005859375,[0. 0. 0. 0. 0. 0. 0. 0. 0.],-2.03125,-0.3046875,9.609375,[0. 0. 0. 0. 0. 0. 0. 0. 0.]
1742663047947471446,1742663047,930092696,imu_link,-0.01885986328125,0.10235595703125,0.005859375,0.99456787109375,[0. 0. 0. 0. 0. 0. 0. 0. 0.],0.0,-0.00390625,-0.001953125,[0. 0. 0. 0. 0. 0. 0. 0. 0.],-2.0703125,-0.3828125,9.54296875,[0. 0. 0. 0. 0. 0. 0. 0. 0.]
1742663047952009265,1742663047,950106933,imu_link,-0.01885986328125,0.10235595703125,0.005859375,0.99456787109375,[0. 0. 0. 0. 0. 0. 0. 0. 0.],0.0,-0.00390625,-0.001953125,[0. 0. 0. 0. 0. 0. 0. 0. 0.],-2.0703125,-0.3828125,9.54296875,[0. 0. 0. 0. 0. 0. 0. 0. 0.]
1742663047981327754,1742663047,970075022,imu_link,-0.01885986328125,0.10235595703125,0.005859375,0.99456787109375,[0. 0. 0. 0. 0. 0. 0. 0. 0.],0.005859375,0.001953125,0.00390625,[0. 0. 0. 0. 0. 0. 0. 0. 0.],-2.03125,-0.3828125,9.65234375,[0. 0. 0. 0. 0. 0. 0. 0. 0.]
1742663048002996358,1742663047,990016851,imu_link,-0.01873779296875,0.10235595703125,0.00592041015625,0.99456787109375,[0. 0. 0. 0. 0. 0. 0. 0. 0.],0.005859375,0.001953125,0.00390625,[0. 0. 0. 0. 0. 0. 0. 0. 0.],-2.03125,-0.34375,9.5390625,[0. 0. 0. 0. 0. 0. 0. 0. 0.]
1742663048011883643,1742663048,9992033,imu_link,-0.01873779296875,0.10235595703125,0.00592041015625,0.99456787109375,[0. 0. 0. 0. 0. 0. 0. 0. 0.],0.005859375,0.001953125,0.00390625,[0. 0. 0. 0. 0. 0. 0. 0. 0.],-2.03125,-0.34375,9.5390625,[0. 0. 0. 0. 0. 0. 0. 0. 0.]
1742663048047147889,1742663048,30069604,imu_link,-0.01861572265625,0.10235595703125,0.00592041015625,0.99456787109375,[0. 0. 0. 0. 0. 0. 0. 0. 0.],0.00390625,-0.001953125,-0.001953125,[0. 0. 0. 0. 0. 0. 0. 0. 0.],-2.03125,-0.34375,9.5,[0. 0. 0. 0. 0. 0. 0. 0. 0.]
1742663048056750328,1742663048,50065601,imu_link,-0.01861572265625,0.10235595703125,0.00592041015625,0.99456787109375,[0. 0. 0. 0. 0. 0. 0. 0. 0.],0.00390625,-0.001953125,-0.001953125,[0. 0. 0. 0. 0. 0. 0. 0. 0.],-1.953125,-0.3828125,9.65234375,[0. 0. 0. 0. 0. 0. 0. 0. 0.]
1742663048076466044,1742663048,70053115,imu_link,-0.01861572265625,0.10235595703125,0.00592041015625,0.99456787109375,[0. 0. 0. 0. 0. 0. 0. 0. 0.],0.0078125,0.0,0.00390625,[0. 0. 0. 0. 0. 0. 0. 0. 0.],-1.953125,-0.3828125,9.65234375,[0. 0. 0. 0. 0. 0. 0. 0. 0.]
1742663048102773968,1742663048,90113001,imu_link,-0.01849365234375,0.102294921875,0.0059814453125,0.99456787109375,[0. 0. 0. 0. 0. 0. 0. 0. 0.],0.0078125,0.0,0.00390625,[0. 0. 0. 0. 0. 0. 0. 0. 0.],-1.953125,-0.421875,9.46484375,[0. 0. 0. 0. 0. 0. 0. 0. 0.]
1742663048111750142,1742663048,109954626,imu_link,-0.01849365234375,0.102294921875,0.0059814453125,0.99456787109375,[0. 0. 0. 0. 0. 0. 0. 0. 0.],0.0078125,0.0,0.00390625,[0. 0. 0. 0. 0. 0. 0. 0. 0.],-1.953125,-0.421875,9.46484375,[0. 0. 0. 0. 0. 0. 0. 0. 0.]
1742663048150679070,1742663048,130105550,imu_link,-0.01824951171875,0.10235595703125,0.0059814453125,0.99456787109375,[0. 0. 0. 0. 0. 0. 0. 0. 0.],0.0078125,0.0,0.005859375,[0. 0. 0. 0. 0. 0. 0. 0. 0.],-1.953125,-0.3828125,9.578125,[0. 0. 0. 0. 0. 0. 0. 0. 0.]
1742663048155452817,1742663048,152438178,imu_link,-0.01824951171875,0.10235595703125,0.0059814453125,0.99456787109375,[0. 0. 0. 0. 0. 0. 0. 0. 0.],0.0078125,0.0,0.005859375,[0. 0. 0. 0. 0. 0. 0. 0. 0.],-2.03125,-0.26953125,9.61328125,[0. 0. 0. 0. 0. 0. 0. 0. 0.]
1742663048180626842,1742663048,170085857,imu_link,-0.01824951171875,0.10235595703125,0.0059814453125,0.99456787109375,[0. 0. 0. 0. 0. 0. 0. 0. 0.],0.005859375,-0.001953125,0.0,[0. 0. 0. 0. 0. 0. 0. 0. 0.],-2.03125,-0.26953125,9.61328125,[0. 0. 0. 0. 0. 0. 0. 0. 0.]
1742663048201800497,1742663048,190035131,imu_link,-0.01812744140625,0.102294921875,0.00604248046875,0.99456787109375,[0. 0. 0. 0. 0. 0. 0. 0. 0.],0.005859375,-0.001953125,0.0,[0. 0. 0. 0. 0. 0. 0. 0. 0.],-1.953125,-0.34375,9.5,[0. 0. 0. 0. 0. 0. 0. 0. 0.]
1742663048220834040,1742663048,210033386,imu_link,-0.01812744140625,0.102294921875,0.00604248046875,0.99456787109375,[0. 0. 0. 0. 0. 0. 0. 0. 0.],0.001953125,-0.001953125,-0.00390625,[0. 0. 0. 0. 0. 0. 0. 0. 0.],-2.03125,-0.3046875,9.609375,[0. 0. 0. 0. 0. 0. 0. 0. 0.]
1742663048232454757,1742663048,230043105,imu_link,-0.01812744140625,0.102294921875,0.00604248046875,0.99456787109375,[0. 0. 0. 0. 0. 0. 0. 0. 0.],0.001953125,-0.001953125,-0.00390625,[0. 0. 0. 0. 0. 0. 0. 0. 0.],-2.03125,-0.3046875,9.609375,[0. 0. 0. 0. 0. 0. 0. 0. 0.]
1742663048251849044,1742663048,250004620,imu_link,-0.01800537109375,0.102294921875,0.0059814453125,0.99456787109375,[0. 0. 0. 0. 0. 0. 0. 0. 0.],0.001953125,-0.001953125,-0.00390625,[0. 0. 0. 0. 0. 0. 0. 0. 0.],-1.9921875,-0.3828125,9.578125,[0. 0. 0. 0. 0. 0. 0. 0. 0.]
1742663048281335978,1742663048,270229007,imu_link,-0.01800537109375,0.102294921875,0.0059814453125,0.99456787109375,[0. 0. 0. 0. 0. 0. 0. 0. 0.],0.00390625,0.0,-0.005859375,[0. 0. 0. 0. 0. 0. 0. 0. 0.],-1.9921875,-0.34375,9.578125,[0. 0. 0. 0. 0. 0. 0. 0. 0.]
1742663048303405364,1742663048,289972575,imu_link,-0.0179443359375,0.10223388671875,0.005859375,0.99456787109375,[0. 0. 0. 0. 0. 0. 0. 0. 0.],0.00390625,0.0,-0.005859375,[0. 0. 0. 0. 0. 0. 0. 0. 0.],-1.9921875,-0.34375,9.578125,[0. 0. 0. 0. 0. 0. 0. 0. 0.]
1742663048317007987,1742663048,310856506,imu_link,-0.0179443359375,0.10223388671875,0.005859375,0.99456787109375,[0. 0. 0. 0. 0. 0. 0. 0. 0.],0.00390625,0.0,-0.005859375,[0. 0. 0. 0. 0. 0. 0. 0. 0.],-1.9921875,-0.34375,9.578125,[0. 0. 0. 0. 0. 0. 0. 0. 0.]
1742663048331779177,1742663048,329993161,imu_link,-0.0179443359375,0.10223388671875,0.005859375,0.99456787109375,[0. 0. 0. 0. 0. 0. 0. 0. 0.],0.0078125,0.001953125,0.00390625,[0. 0. 0. 0. 0. 0. 0. 0. 0.],-1.9921875,-0.34375,9.578125,[0. 0. 0. 0. 0. 0. 0. 0. 0.]
1742663048351756877,1742663048,349970250,imu_link,-0.01788330078125,0.102294921875,0.00592041015625,0.99456787109375,[0. 0. 0. 0. 0. 0. 0. 0. 0.],0.0078125,0.001953125,0.00390625,[0. 0. 0. 0. 0. 0. 0. 0. 0.],-1.9921875,-0.3046875,9.58203125,[0. 0. 0. 0. 0. 0. 0. 0. 0.]
1742663048380911234,1742663048,370073877,imu_link,-0.01788330078125,0.102294921875,0.00592041015625,0.99456787109375,[0. 0. 0. 0. 0. 0. 0. 0. 0.],0.005859375,-0.00390625,-0.005859375,[0. 0. 0. 0. 0. 0. 0. 0. 0.],-1.953125,-0.26953125,9.5390625,[0. 0. 0. 0. 0. 0. 0. 0. 0.]
1742663048406128556,1742663048,389992280,imu_link,-0.01788330078125,0.10223388671875,0.00579833984375,0.99456787109375,[0. 0. 0. 0. 0. 0. 0. 0. 0.],0.005859375,-0.00390625,-0.005859375,[0. 0. 0. 0. 0. 0. 0. 0. 0.],-1.9140625,-0.34375,9.5390625,[0. 0. 0. 0. 0. 0. 0. 0. 0.]
1742663048411946294,1742663048,410037258,imu_link,-0.01788330078125,0.10223388671875,0.00579833984375,0.99456787109375,[0. 0. 0. 0. 0. 0. 0. 0. 0.],0.005859375,-0.00390625,-0.005859375,[0. 0. 0. 0. 0. 0. 0. 0. 0.],-1.9140625,-0.34375,9.5390625,[0. 0. 0. 0. 0. 0. 0. 0. 0.]
1742663048445389653,1742663048,430009143,imu_link,-0.0179443359375,0.10223388671875,0.00567626953125,0.99456787109375,[0. 0. 0. 0. 0. 0. 0. 0. 0.],0.005859375,0.001953125,0.0,[0. 0. 0. 0. 0. 0. 0. 0. 0.],-1.953125,-0.421875,9.69140625,[0. 0. 0. 0. 0. 0. 0. 0. 0.]
1742663048451747840,1742663048,449970139,imu_link,-0.0179443359375,0.10223388671875,0.00567626953125,0.99456787109375,[0. 0. 0. 0. 0. 0. 0. 0. 0.],0.005859375,0.001953125,0.0,[0. 0. 0. 0. 0. 0. 0. 0. 0.],-1.953125,-0.421875,9.69140625,[0. 0. 0. 0. 0. 0. 0. 0. 0.]
1742663048480753678,1742663048,470069025,imu_link,-0.0179443359375,0.10223388671875,0.00567626953125,0.99456787109375,[0. 0. 0. 0. 0. 0. 0. 0. 0.],0.005859375,0.0,-0.00390625,[0. 0. 0. 0. 0. 0. 0. 0. 0.],-1.9921875,-0.34375,9.5,[0. 0. 0. 0. 0. 0. 0. 0. 0.]
1742663048502403430,1742663048,490033633,imu_link,-0.01800537109375,0.10223388671875,0.00567626953125,0.99456787109375,[0. 0. 0. 0. 0. 0. 0. 0. 0.],0.005859375,0.0,-0.00390625,[0. 0. 0. 0. 0. 0. 0. 0. 0.],-1.953125,-0.3046875,9.58203125,[0. 0. 0. 0. 0. 0. 0. 0. 0.]
1742663048511886812,1742663048,510038092,imu_link,-0.01800537109375,0.10223388671875,0.00567626953125,0.99456787109375,[0. 0. 0. 0. 0. 0. 0. 0. 0.],0.005859375,0.0,-0.00390625,[0. 0. 0. 0. 0. 0. 0. 0. 0.],-1.953125,-0.3046875,9.58203125,[0. 0. 0. 0. 0. 0. 0. 0. 0.]
1742663048546640165,1742663048,530069922,imu_link,-0.0179443359375,0.1021728515625,0.005615234375,0.99456787109375,[0. 0. 0. 0. 0. 0. 0. 0. 0.],0.005859375,0.001953125,0.0,[0. 0. 0. 0. 0. 0. 0. 0. 0.],-1.9921875,-0.34375,9.61328125,[0. 0. 0. 0. 0. 0. 0. 0. 0.]
1742663048551870657,1742663048,549987732,imu_link,-0.0179443359375,0.1021728515625,0.005615234375,0.99456787109375,[0. 0. 0. 0. 0. 0. 0. 0. 0.],0.005859375,0.001953125,0.0,[0. 0. 0. 0. 0. 0. 0. 0. 0.],-1.9921875,-0.34375,9.61328125,[0. 0. 0. 0. 0. 0. 0. 0. 0.]
1742663048580600492,1742663048,570085600,imu_link,-0.0179443359375,0.1021728515625,0.005615234375,0.99456787109375,[0. 0. 0. 0. 0. 0. 0. 0. 0.],0.0,0.0,-0.00390625,[0. 0. 0. 0. 0. 0. 0. 0. 0.],-2.03125,-0.34375,9.5390625,[0. 0. 0. 0. 0. 0. 0. 0. 0.]
1742663048601784647,1742663048,590117967,imu_link,-0.0179443359375,0.10211181640625,0.00555419921875,0.99456787109375,[0. 0. 0. 0. 0. 0. 0. 0. 0.],0.0,0.0,-0.00390625,[0. 0. 0. 0. 0. 0. 0. 0. 0.],-2.0703125,-0.34375,9.58203125,[0. 0. 0. 0. 0. 0. 0. 0. 0.]
1742663048611929128,1742663048,610073463,imu_link,-0.0179443359375,0.10211181640625,0.00555419921875,0.99456787109375,[0. 0. 0. 0. 0. 0. 0. 0. 0.],0.0,0.0,-0.00390625,[0. 0. 0. 0. 0. 0. 0. 0. 0.],-2.0703125,-0.34375,9.58203125,[0. 0. 0. 0. 0. 0. 0. 0. 0.]
1742663048646498035,1742663048,630071608,imu_link,-0.01776123046875,0.10211181640625,0.00555419921875,0.99462890625,[0. 0. 0. 0. 0. 0. 0. 0. 0.],0.005859375,0.001953125,0.00390625,[0. 0. 0. 0. 0. 0. 0. 0. 0.],-2.03125,-0.3828125,9.61328125,[0. 0. 0. 0. 0. 0. 0. 0. 0.]
1742663048656992834,1742663048,650002974,imu_link,-0.01776123046875,0.10211181640625,0.00555419921875,0.99462890625,[0. 0. 0. 0. 0. 0. 0. 0. 0.],0.005859375,0.001953125,0.00390625,[0. 0. 0. 0. 0. 0. 0. 0. 0.],-1.9921875,-0.3828125,9.5,[0. 0. 0. 0. 0. 0. 0. 0. 0.]
1742663048676753032,1742663048,670067378,imu_link,-0.01776123046875,0.10211181640625,0.00555419921875,0.99462890625,[0. 0. 0. 0. 0. 0. 0. 0. 0.],0.0,0.001953125,0.009765625,[0. 0. 0. 0. 0. 0. 0. 0. 0.],-1.9921875,-0.3828125,9.5,[0. 0. 0. 0. 0. 0. 0. 0. 0.]
1742663048702441469,1742663048,690031449,imu_link,-0.0177001953125,0.10211181640625,0.00579833984375,0.99456787109375,[0. 0. 0. 0. 0. 0. 0. 0. 0.],0.0,0.001953125,0.009765625,[0. 0. 0. 0. 0. 0. 0. 0. 0.],-1.9921875,-0.3828125,9.61328125,[0. 0. 0. 0. 0. 0. 0. 0. 0.]
1742663048719829108,1742663048,709987370,imu_link,-0.0177001953125,0.10211181640625,0.00579833984375,0.99456787109375,[0. 0. 0. 0. 0. 0. 0. 0. 0.],0.0,0.001953125,0.009765625,[0. 0. 0. 0. 0. 0. 0. 0. 0.],-1.9921875,-0.3828125,9.61328125,[0. 0. 0. 0. 0. 0. 0. 0. 0.]
1742663048731969663,1742663048,730043867,imu_link,-0.0177001953125,0.10211181640625,0.00579833984375,0.99456787109375,[0. 0. 0. 0. 0. 0. 0. 0. 0.],-0.001953125,0.001953125,0.00390625,[0. 0. 0. 0. 0. 0. 0. 0. 0.],-1.953125,-0.3046875,9.58203125,[0. 0. 0. 0. 0. 0. 0. 0. 0.]
1742663048757111576,1742663048,750054327,imu_link,-0.01763916015625,0.1021728515625,0.005859375,0.99456787109375,[0. 0. 0. 0. 0. 0. 0. 0. 0.],-0.001953125,0.001953125,0.00390625,[0. 0. 0. 0. 0. 0. 0. 0. 0.],-1.9140625,-0.26953125,9.5390625,[0. 0. 0. 0. 0. 0. 0. 0. 0.]
1742663048776314028,1742663048,770086842,imu_link,-0.01763916015625,0.1021728515625,0.005859375,0.99456787109375,[0. 0. 0. 0. 0. 0. 0. 0. 0.],-0.001953125,0.0,0.00390625,[0. 0. 0. 0. 0. 0. 0. 0. 0.],-1.9140625,-0.26953125,9.5390625,[0. 0. 0. 0. 0. 0. 0. 0. 0.]
1742663048800859936,1742663048,790005375,imu_link,-0.01763916015625,0.10223388671875,0.0059814453125,0.99456787109375,[0. 0. 0. 0. 0. 0. 0. 0. 0.],-0.001953125,0.0,0.00390625,[0. 0. 0. 0. 0. 0. 0. 0. 0.],-1.9921875,-0.19140625,9.58203125,[0. 0. 0. 0. 0. 0. 0. 0. 0.]
1742663048819955091,1742663048,810078946,imu_link,-0.01763916015625,0.10223388671875,0.0059814453125,0.99456787109375,[0. 0. 0. 0. 0. 0. 0. 0. 0.],-0.005859375,-0.00390625,-0.013671875,[0. 0. 0. 0. 0. 0. 0. 0. 0.],-1.9921875,-0.23046875,9.54296875,[0. 0. 0. 0. 0. 0. 0. 0. 0.]
1742663048846180181,1742663048,830010497,imu_link,-0.0177001953125,0.1021728515625,0.0057373046875,0.99456787109375,[0. 0. 0. 0. 0. 0. 0. 0. 0.],-0.005859375,-0.00390625,-0.013671875,[0. 0. 0. 0. 0. 0. 0. 0. 0.],-1.9921875,-0.23046875,9.54296875,[0. 0. 0. 0. 0. 0. 0. 0. 0.]
1742663048851938604,1742663048,849962049,imu_link,-0.0177001953125,0.1021728515625,0.0057373046875,0.99456787109375,[0. 0. 0. 0. 0. 0. 0. 0. 0.],-0.005859375,-0.00390625,-0.013671875,[0. 0. 0. 0. 0. 0. 0. 0. 0.],-2.03125,-0.421875,9.58203125,[0. 0. 0. 0. 0. 0. 0. 0. 0.]
1742663048879961229,1742663048,870075269,imu_link,-0.0177001953125,0.1021728515625,0.0057373046875,0.99456787109375,[0. 0. 0. 0. 0. 0. 0. 0. 0.],0.0,-0.001953125,0.005859375,[0. 0. 0. 0. 0. 0. 0. 0. 0.],-2.03125,-0.4609375,9.578125,[0. 0. 0. 0. 0. 0. 0. 0. 0.]
1742663048901500072,1742663048,890016820,imu_link,-0.01763916015625,0.1021728515625,0.00579833984375,0.99456787109375,[0. 0. 0. 0. 0. 0. 0. 0. 0.],0.0,-0.001953125,0.005859375,[0. 0. 0. 0. 0. 0. 0. 0. 0.],-2.03125,-0.4609375,9.578125,[0. 0. 0. 0. 0. 0. 0. 0. 0.]
1742663048920297502,1742663048,910249615,imu_link,-0.01763916015625,0.1021728515625,0.00579833984375,0.99456787109375,[0. 0. 0. 0. 0. 0. 0. 0. 0.],0.00390625,0.0,0.00390625,[0. 0. 0. 0. 0. 0. 0. 0. 0.],-2.0703125,-0.34375,9.58203125,[0. 0. 0. 0. 0. 0. 0. 0. 0.]
1742663048943178229,1742663048,930032868,imu_link,-0.01763916015625,0.1021728515625,0.00592041015625,0.99456787109375,[0. 0. 0. 0. 0. 0. 0. 0. 0.],0.00390625,0.0,0.00390625,[0. 0. 0. 0. 0. 0. 0. 0. 0.],-2.0703125,-0.34375,9.58203125,[0. 0. 0. 0. 0. 0. 0. 0. 0.]
1742663048951899067,1742663048,950021698,imu_link,-0.01763916015625,0.1021728515625,0.00592041015625,0.99456787109375,[0. 0. 0. 0. 0. 0. 0. 0. 0.],0.00390625,0.0,0.00390625,[0. 0. 0. 0. 0. 0. 0. 0. 0.],-2.0703125,-0.23046875,9.578125,[0. 0. 0. 0. 0. 0. 0. 0. 0.]
1742663048980634865,1742663048,970081936,imu_link,-0.01763916015625,0.1021728515625,0.00592041015625,0.99456787109375,[0. 0. 0. 0. 0. 0. 0. 0. 0.],-0.001953125,0.001953125,-0.001953125,[0. 0. 0. 0. 0. 0. 0. 0. 0.],-1.953125,-0.26953125,9.5390625,[0. 0. 0. 0. 0. 0. 0. 0. 0.]
1742663048995591686,1742663048,992099636,imu_link,-0.01776123046875,0.1021728515625,0.00579833984375,0.99456787109375,[0. 0. 0. 0. 0. 0. 0. 0. 0.],-0.001953125,0.001953125,-0.001953125,[0. 0. 0. 0. 0. 0. 0. 0. 0.],-1.953125,-0.26953125,9.5390625,[0. 0. 0. 0. 0. 0. 0. 0. 0.]
1742663049017440514,1742663049,10071299,imu_link,-0.01776123046875,0.1021728515625,0.00579833984375,0.99456787109375,[0. 0. 0. 0. 0. 0. 0. 0. 0.],-0.001953125,-0.001953125,-0.00390625,[0. 0. 0. 0. 0. 0. 0. 0. 0.],-1.9140625,-0.34375,9.61328125,[0. 0. 0. 0. 0. 0. 0. 0. 0.]
1742663049046057588,1742663049,30040221,imu_link,-0.01776123046875,0.1021728515625,0.0057373046875,0.99456787109375,[0. 0. 0. 0. 0. 0. 0. 0. 0.],-0.001953125,-0.001953125,-0.00390625,[0. 0. 0. 0. 0. 0. 0. 0. 0.],-1.953125,-0.34375,9.5390625,[0. 0. 0. 0. 0. 0. 0. 0. 0.]
1742663049052049995,1742663049,50163663,imu_link,-0.01776123046875,0.1021728515625,0.0057373046875,0.99456787109375,[0. 0. 0. 0. 0. 0. 0. 0. 0.],-0.001953125,-0.001953125,-0.00390625,[0. 0. 0. 0. 0. 0. 0. 0. 0.],-1.953125,-0.34375,9.5390625,[0. 0. 0. 0. 0. 0. 0. 0. 0.]
1742663049079985804,1742663049,70098455,imu_link,-0.01776123046875,0.1021728515625,0.0057373046875,0.99456787109375,[0. 0. 0. 0. 0. 0. 0. 0. 0.],-0.00390625,0.001953125,-0.01171875,[0. 0. 0. 0. 0. 0. 0. 0. 0.],-1.953125,-0.3046875,9.58203125,[0. 0. 0. 0. 0. 0. 0. 0. 0.]
1742663049099012939,1742663049,91605224,imu_link,-0.017822265625,0.10223388671875,0.00555419921875,0.99456787109375,[0. 0. 0. 0. 0. 0. 0. 0. 0.],-0.00390625,0.001953125,-0.01171875,[0. 0. 0. 0. 0. 0. 0. 0. 0.],-1.9140625,-0.3828125,9.578125,[0. 0. 0. 0. 0. 0. 0. 0. 0.]
1742663049116738767,1742663049,110070076,imu_link,-0.017822265625,0.10223388671875,0.00555419921875,0.99456787109375,[0. 0. 0. 0. 0. 0. 0. 0. 0.],0.0,0.0,0.0078125,[0. 0. 0. 0. 0. 0. 0. 0. 0.],-1.9140625,-0.3828125,9.578125,[0. 0. 0. 0. 0. 0. 0. 0. 0.]
1742663049143651177,1742663049,130056276,imu_link,-0.017822265625,0.10223388671875,0.00567626953125,0.99456787109375,[0. 0. 0. 0. 0. 0. 0. 0. 0.],0.0,0.0,0.0078125,[0. 0. 0. 0. 0. 0. 0. 0. 0.],-2.03125,-0.34375,9.5,[0. 0. 0. 0. 0. 0. 0. 0. 0.]
1742663049152377257,1742663049,149978494,imu_link,-0.017822265625,0.10223388671875,0.00567626953125,0.99456787109375,[0. 0. 0. 0. 0. 0. 0. 0. 0.],0.0,0.0,0.0078125,[0. 0. 0. 0. 0. 0. 0. 0. 0.],-2.03125,-0.34375,9.5,[0. 0. 0. 0. 0. 0. 0. 0. 0.]
1742663049180722643,1742663049,170083973,imu_link,-0.017822265625,0.10223388671875,0.00567626953125,0.99456787109375,[0. 0. 0. 0. 0. 0. 0. 0. 0.],0.00390625,-0.001953125,-0.00390625,[0. 0. 0. 0. 0. 0. 0. 0. 0.],-2.0703125,-0.3046875,9.578125,[0. 0. 0. 0. 0. 0. 0. 0. 0.]
1742663049198380674,1742663049,195299738,imu_link,-0.017822265625,0.1021728515625,0.005615234375,0.99456787109375,[0. 0. 0. 0. 0. 0. 0. 0. 0.],0.00390625,-0.001953125,-0.00390625,[0. 0. 0. 0. 0. 0. 0. 0. 0.],-2.0703125,-0.34375,9.609375,[0. 0. 0. 0. 0. 0. 0. 0. 0.]
1742663049217503792,1742663049,210073761,imu_link,-0.017822265625,0.1021728515625,0.005615234375,0.99456787109375,[0. 0. 0. 0. 0. 0. 0. 0. 0.],0.0078125,0.001953125,0.00390625,[0. 0. 0. 0. 0. 0. 0. 0. 0.],-2.0703125,-0.34375,9.609375,[0. 0. 0. 0. 0. 0. 0. 0. 0.]
1742663049242285128,1742663049,230150999,imu_link,-0.01776123046875,0.1021728515625,0.005615234375,0.99456787109375,[0. 0. 0. 0. 0. 0. 0. 0. 0.],0.0078125,0.001953125,0.00390625,[0. 0. 0. 0. 0. 0. 0. 0. 0.],-2.10546875,-0.34375,9.54296875,[0. 0. 0. 0. 0. 0. 0. 0. 0.]
1742663049258484923,1742663049,249978123,imu_link,-0.01776123046875,0.1021728515625,0.005615234375,0.99456787109375,[0. 0. 0. 0. 0. 0. 0. 0. 0.],0.0078125,0.001953125,0.00390625,[0. 0. 0. 0. 0. 0. 0. 0. 0.],-2.10546875,-0.34375,9.54296875,[0. 0. 0. 0. 0. 0. 0. 0. 0.]
1742663049277577596,1742663049,270103769,imu_link,-0.01776123046875,0.1021728515625,0.005615234375,0.99456787109375,[0. 0. 0. 0. 0. 0. 0. 0. 0.],0.0078125,0.0,-0.013671875,[0. 0. 0. 0. 0. 0. 0. 0. 0.],-2.0703125,-0.26953125,9.54296875,[0. 0. 0. 0. 0. 0. 0. 0. 0.]
1742663049305481627,1742663049,290014357,imu_link,-0.01776123046875,0.10223388671875,0.00531005859375,0.99456787109375,[0. 0. 0. 0. 0. 0. 0. 0. 0.],0.0078125,0.0,-0.013671875,[0. 0. 0. 0. 0. 0. 0. 0. 0.],-1.9921875,-0.26953125,9.61328125,[0. 0. 0. 0. 0. 0. 0. 0. 0.]
1742663049320944138,1742663049,309991575,imu_link,-0.01776123046875,0.10223388671875,0.00531005859375,0.99456787109375,[0. 0. 0. 0. 0. 0. 0. 0. 0.],0.00390625,0.001953125,-0.005859375,[0. 0. 0. 0. 0. 0. 0. 0. 0.],-1.9140625,-0.34375,9.5390625,[0. 0. 0. 0. 0. 0. 0. 0. 0.]
1742663049342971300,1742663049,330040868,imu_link,-0.017822265625,0.102294921875,0.00518798828125,0.99456787109375,[0. 0. 0. 0. 0. 0. 0. 0. 0.],0.00390625,0.001953125,-0.005859375,[0. 0. 0. 0. 0. 0. 0. 0. 0.],-1.9140625,-0.34375,9.5390625,[0. 0. 0. 0. 0. 0. 0. 0. 0.]
1742663049353036781,1742663049,349923549,imu_link,-0.017822265625,0.102294921875,0.00518798828125,0.99456787109375,[0. 0. 0. 0. 0. 0. 0. 0. 0.],0.00390625,0.001953125,-0.005859375,[0. 0. 0. 0. 0. 0. 0. 0. 0.],-1.87890625,-0.3828125,9.58203125,[0. 0. 0. 0. 0. 0. 0. 0. 0.]
1742663049380783217,1742663049,370046879,imu_link,-0.017822265625,0.102294921875,0.00518798828125,0.99456787109375,[0. 0. 0. 0. 0. 0. 0. 0. 0.],-0.00390625,0.0,0.0,[0. 0. 0. 0. 0. 0. 0. 0. 0.],-1.87890625,-0.3828125,9.58203125,[0. 0. 0. 0. 0. 0. 0. 0. 0.]
1742663049396196617,1742663049,392676677,imu_link,-0.01788330078125,0.1024169921875,0.005126953125,0.99456787109375,[0. 0. 0. 0. 0. 0. 0. 0. 0.],-0.00390625,0.0,0.0,[0. 0. 0. 0. 0. 0. 0. 0. 0.],-1.9140625,-0.4609375,9.61328125,[0. 0. 0. 0. 0. 0. 0. 0. 0.]
1742663049420779562,1742663049,410189632,imu_link,-0.01788330078125,0.1024169921875,0.005126953125,0.99456787109375,[0. 0. 0. 0. 0. 0. 0. 0. 0.],-0.001953125,0.0,-0.005859375,[0. 0. 0. 0. 0. 0. 0. 0. 0.],-1.9921875,-0.26953125,9.5390625,[0. 0. 0. 0. 0. 0. 0. 0. 0.]
1742663049441019208,1742663049,429995182,imu_link,-0.0179443359375,0.1024169921875,0.0050048828125,0.99456787109375,[0. 0. 0. 0. 0. 0. 0. 0. 0.],-0.001953125,0.0,-0.005859375,[0. 0. 0. 0. 0. 0. 0. 0. 0.],-1.9921875,-0.26953125,9.5390625,[0. 0. 0. 0. 0. 0. 0. 0. 0.]
1742663049452422293,1742663049,449977345,imu_link,-0.0179443359375,0.1024169921875,0.0050048828125,0.99456787109375,[0. 0. 0. 0. 0. 0. 0. 0. 0.],-0.001953125,0.0,-0.005859375,[0. 0. 0. 0. 0. 0. 0. 0. 0.],-1.953125,-0.26953125,9.5390625,[0. 0. 0. 0. 0. 0. 0. 0. 0.]
1742663049480322102,1742663049,470048101,imu_link,-0.0179443359375,0.1024169921875,0.0050048828125,0.99456787109375,[0. 0. 0. 0. 0. 0. 0. 0. 0.],-0.005859375,0.0,-0.005859375,[0. 0. 0. 0. 0. 0. 0. 0. 0.],-2.03125,-0.26953125,9.61328125,[0. 0. 0. 0. 0. 0. 0. 0. 0.]
1742663049496483156,1742663049,492208080,imu_link,-0.01800537109375,0.1024169921875,0.0048828125,0.99456787109375,[0. 0. 0. 0. 0. 0. 0. 0. 0.],-0.005859375,0.0,-0.005859375,[0. 0. 0. 0. 0. 0. 0. 0. 0.],-2.03125,-0.26953125,9.61328125,[0. 0. 0. 0. 0. 0. 0. 0. 0.]
1742663049520601208,1742663049,509994649,imu_link,-0.01800537109375,0.1024169921875,0.0048828125,0.99456787109375,[0. 0. 0. 0. 0. 0. 0. 0. 0.],0.0,0.0,-0.0078125,[0. 0. 0. 0. 0. 0. 0. 0. 0.],-2.03125,-0.3828125,9.5390625,[0. 0. 0. 0. 0. 0. 0. 0. 0.]
1742663049544319294,1742663049,529983978,imu_link,-0.01806640625,0.1024169921875,0.00469970703125,0.99456787109375,[0. 0. 0. 0. 0. 0. 0. 0. 0.],0.0,0.0,-0.0078125,[0. 0. 0. 0. 0. 0. 0. 0. 0.],-2.03125,-0.4609375,9.578125,[0. 0. 0. 0. 0. 0. 0. 0. 0.]
1742663049553827695,1742663049,549988975,imu_link,-0.01806640625,0.1024169921875,0.00469970703125,0.99456787109375,[0. 0. 0. 0. 0. 0. 0. 0. 0.],0.0,0.0,-0.0078125,[0. 0. 0. 0. 0. 0. 0. 0. 0.],-2.03125,-0.4609375,9.578125,[0. 0. 0. 0. 0. 0. 0. 0. 0.]
1742663049590811567,1742663049,570063749,imu_link,-0.01806640625,0.10247802734375,0.00469970703125,0.99456787109375,[0. 0. 0. 0. 0. 0. 0. 0. 0.],0.001953125,0.001953125,0.00390625,[0. 0. 0. 0. 0. 0. 0. 0. 0.],-2.0703125,-0.421875,9.61328125,[0. 0. 0. 0. 0. 0. 0. 0. 0.]
1742663049597193107,1742663049,593816872,imu_link,-0.01806640625,0.10247802734375,0.00469970703125,0.99456787109375,[0. 0. 0. 0. 0. 0. 0. 0. 0.],0.001953125,0.001953125,0.00390625,[0. 0. 0. 0. 0. 0. 0. 0. 0.],-2.0703125,-0.421875,9.61328125,[0. 0. 0. 0. 0. 0. 0. 0. 0.]
1742663049617577514,1742663049,610033205,imu_link,-0.01806640625,0.10247802734375,0.00469970703125,0.99456787109375,[0. 0. 0. 0. 0. 0. 0. 0. 0.],-0.00390625,-0.001953125,-0.0078125,[0. 0. 0. 0. 0. 0. 0. 0. 0.],-2.03125,-0.3046875,9.50390625,[0. 0. 0. 0. 0. 0. 0. 0. 0.]
1742663049644729019,1742663049,630047090,imu_link,-0.01806640625,0.10247802734375,0.004638671875,0.99456787109375,[0. 0. 0. 0. 0. 0. 0. 0. 0.],-0.00390625,-0.001953125,-0.0078125,[0. 0. 0. 0. 0. 0. 0. 0. 0.],-1.9921875,-0.23046875,9.54296875,[0. 0. 0. 0. 0. 0. 0. 0. 0.]
1742663049653952529,1742663049,649980900,imu_link,-0.01806640625,0.10247802734375,0.004638671875,0.99456787109375,[0. 0. 0. 0. 0. 0. 0. 0. 0.],-0.00390625,-0.001953125,-0.0078125,[0. 0. 0. 0. 0. 0. 0. 0. 0.],-1.9921875,-0.23046875,9.54296875,[0. 0. 0. 0. 0. 0. 0. 0. 0.]
1742663049691809650,1742663049,670059656,imu_link,-0.01806640625,0.10247802734375,0.0045166015625,0.99456787109375,[0. 0. 0. 0. 0. 0. 0. 0. 0.],0.0,-0.00390625,-0.00390625,[0. 0. 0. 0. 0. 0. 0. 0. 0.],-1.87890625,-0.34375,9.609375,[0. 0. 0. 0. 0. 0. 0. 0. 0.]
1742663049701570813,1742663049,698746435,imu_link,-0.01806640625,0.10247802734375,0.0045166015625,0.99456787109375,[0. 0. 0. 0. 0. 0. 0. 0. 0.],0.0,-0.00390625,-0.00390625,[0. 0. 0. 0. 0. 0. 0. 0. 0.],-1.9140625,-0.3828125,9.578125,[0. 0. 0. 0. 0. 0. 0. 0. 0.]
1742663049718136759,1742663049,709970370,imu_link,-0.01806640625,0.10247802734375,0.0045166015625,0.99456787109375,[0. 0. 0. 0. 0. 0. 0. 0. 0.],0.0,0.00390625,0.00390625,[0. 0. 0. 0. 0. 0. 0. 0. 0.],-1.9140625,-0.3828125,9.578125,[0. 0. 0. 0. 0. 0. 0. 0. 0.]
1742663049744607777,1742663049,730079831,imu_link,-0.01800537109375,0.10260009765625,0.00457763671875,0.99456787109375,[0. 0. 0. 0. 0. 0. 0. 0. 0.],0.0,0.00390625,0.00390625,[0. 0. 0. 0. 0. 0. 0. 0. 0.],-1.9921875,-0.3828125,9.578125,[0. 0. 0. 0. 0. 0. 0. 0. 0.]
1742663049753344801,1742663049,749963344,imu_link,-0.01800537109375,0.10260009765625,0.00457763671875,0.99456787109375,[0. 0. 0. 0. 0. 0. 0. 0. 0.],0.0,0.00390625,0.00390625,[0. 0. 0. 0. 0. 0. 0. 0. 0.],-1.9921875,-0.3828125,9.578125,[0. 0. 0. 0. 0. 0. 0. 0. 0.]
1742663049793519517,1742663049,770065841,imu_link,-0.0179443359375,0.1026611328125,0.004638671875,0.99456787109375,[0. 0. 0. 0. 0. 0. 0. 0. 0.],-0.00390625,-0.001953125,0.0,[0. 0. 0. 0. 0. 0. 0. 0. 0.],-1.9921875,-0.34375,9.578125,[0. 0. 0. 0. 0. 0. 0. 0. 0.]
1742663049798349746,1742663049,796237653,imu_link,-0.0179443359375,0.1026611328125,0.004638671875,0.99456787109375,[0. 0. 0. 0. 0. 0. 0. 0. 0.],-0.00390625,-0.001953125,0.0,[0. 0. 0. 0. 0. 0. 0. 0. 0.],-1.9921875,-0.34375,9.5,[0. 0. 0. 0. 0. 0. 0. 0. 0.]
1742663049818009332,1742663049,810009352,imu_link,-0.0179443359375,0.1026611328125,0.004638671875,0.99456787109375,[0. 0. 0. 0. 0. 0. 0. 0. 0.],-0.00390625,0.0,0.00390625,[0. 0. 0. 0. 0. 0. 0. 0. 0.],-1.9921875,-0.34375,9.5,[0. 0. 0. 0. 0. 0. 0. 0. 0.]
1742663049842756964,1742663049,829990348,imu_link,-0.01788330078125,0.1026611328125,0.00469970703125,0.99456787109375,[0. 0. 0. 0. 0. 0. 0. 0. 0.],-0.00390625,0.0,0.00390625,[0. 0. 0. 0. 0. 0. 0. 0. 0.],-1.9921875,-0.26953125,9.61328125,[0. 0. 0. 0. 0. 0. 0. 0. 0.]
1742663049857596098,1742663049,850010641,imu_link,-0.01788330078125,0.1026611328125,0.00469970703125,0.99456787109375,[0. 0. 0. 0. 0. 0. 0. 0. 0.],-0.00390625,0.0,0.00390625,[0. 0. 0. 0. 0. 0. 0. 0. 0.],-1.9921875,-0.26953125,9.61328125,[0. 0. 0. 0. 0. 0. 0. 0. 0.]
1742663049877381815,1742663049,870070767,imu_link,-0.01788330078125,0.1026611328125,0.00469970703125,0.99456787109375,[0. 0. 0. 0. 0. 0. 0. 0. 0.],-0.00390625,0.0,-0.00390625,[0. 0. 0. 0. 0. 0. 0. 0. 0.],-1.9921875,-0.26953125,9.5390625,[0. 0. 0. 0. 0. 0. 0. 0. 0.]
1742663049905242586,1742663049,890106375,imu_link,-0.0179443359375,0.10260009765625,0.00457763671875,0.99456787109375,[0. 0. 0. 0. 0. 0. 0. 0. 0.],-0.00390625,0.0,-0.00390625,[0. 0. 0. 0. 0. 0. 0. 0. 0.],-1.9921875,-0.3046875,9.58203125,[0. 0. 0. 0. 0. 0. 0. 0. 0.]
1742663049919592716,1742663049,910062926,imu_link,-0.0179443359375,0.10260009765625,0.00457763671875,0.99456787109375,[0. 0. 0. 0. 0. 0. 0. 0. 0.],-0.001953125,0.0,0.0,[0. 0. 0. 0. 0. 0. 0. 0. 0.],-1.9921875,-0.3828125,9.5,[0. 0. 0. 0. 0. 0. 0. 0. 0.]
1742663049941949808,1742663049,930001718,imu_link,-0.01800537109375,0.10260009765625,0.0045166015625,0.99456787109375,[0. 0. 0. 0. 0. 0. 0. 0. 0.],-0.001953125,0.0,0.0,[0. 0. 0. 0. 0. 0. 0. 0. 0.],-1.9921875,-0.3828125,9.5,[0. 0. 0. 0. 0. 0. 0. 0. 0.]
1742663049957373781,1742663049,950082178,imu_link,-0.01800537109375,0.10260009765625,0.0045166015625,0.99456787109375,[0. 0. 0. 0. 0. 0. 0. 0. 0.],-0.001953125,0.0,0.0,[0. 0. 0. 0. 0. 0. 0. 0. 0.],-2.0703125,-0.3828125,9.6484375,[0. 0. 0. 0. 0. 0. 0. 0. 0.]
1742663049989183237,1742663049,970064600,imu_link,-0.01800537109375,0.1026611328125,0.0045166015625,0.99456787109375,[0. 0. 0. 0. 0. 0. 0. 0. 0.],0.001953125,0.00390625,0.0,[0. 0. 0. 0. 0. 0. 0. 0. 0.],-2.0703125,-0.3828125,9.50390625,[0. 0. 0. 0. 0. 0. 0. 0. 0.]
1742663049995286792,1742663049,991417812,imu_link,-0.01800537109375,0.1026611328125,0.0045166015625,0.99456787109375,[0. 0. 0. 0. 0. 0. 0. 0. 0.],0.001953125,0.00390625,0.0,[0. 0. 0. 0. 0. 0. 0. 0. 0.],-2.0703125,-0.3828125,9.50390625,[0. 0. 0. 0. 0. 0. 0. 0. 0.]
